FastInstructions,practicetext,practicecorrect,Statement,Correct,Instrloop.thisRepN,Instrloop.thisTrialN,Instrloop.thisN,Instrloop.thisIndex,Practice.thisRepN,Practice.thisTrialN,Practice.thisN,Practice.thisIndex,FastLoop.thisRepN,FastLoop.thisTrialN,FastLoop.thisN,FastLoop.thisIndex,Instr1.started,Instr1.stopped,InstrResponse.keys,InstrResponse.rt,InstrResponse.started,InstrResponse.stopped,fixcross1.started,fixcross1.stopped,PracticeText.started,PracticeText.stopped,key_resp_2.keys,key_resp_2.corr,key_resp_2.rt,key_resp_2.started,key_resp_2.stopped,scaretone.started,scaretone.stopped,text.started,text.stopped,key_resp_3.keys,key_resp_3.rt,key_resp_3.started,key_resp_3.stopped,fixcross.started,fixcross.stopped,Fasttext.started,Fasttext.stopped,key_resp.keys,key_resp.corr,key_resp.rt,key_resp.started,key_resp.stopped,Timer.started,Timer.stopped,EndStudyText.started,EndStudyText.stopped,endstudykey.keys,endstudykey.rt,endstudykey.started,endstudykey.stopped,participant,session,date,expName,psychopyVersion,frameRate,
"You will be shown a total of 160 statements pertaining to mathematics, science, and social concepts. Your task is to determine whether each statement is true or false as quickly as possible without sacrificing accuracy. Some statements will be difficult and some will be easier.  We do not expect you to know the correct answer for all 160 statements.  Press E to Continue",,,,,0,0,0,0,,,,,,,,,33.1728109990072,None,e,0.30620135299977846,35.13936788700812,None,,,,,,,,,,,,,,,,,,,,,,,,,,,,,,,,,,,computer12/30,001,2021_Dec_30_1346,InfinityThesisTest5,2021.2.3,59.683624150420314,
"Each statement will appear on your screen for 5 seconds and you will have those 5 seconds to decide if it is true or false before the next statement appears. There will be a timer on your screen and a reminder when you have 2 seconds remaining. If you do not respond, that answer will be considered incorrect and the task will move on to the next statement. Press E to continue",,,,,0,1,1,1,,,,,,,,,35.50633863999974,None,e,5.060762125998735,37.4893405620096,None,,,,,,,,,,,,,,,,,,,,,,,,,,,,,,,,,,,computer12/30,001,2021_Dec_30_1346,InfinityThesisTest5,2021.2.3,59.683624150420314,
"If the statement is true, you will press the “E” key on your keyboard with your left pointer finger; if the statement is false, you will press the “I” key on your keyboard with your right pointer finger. Press E to continue",,,,,0,2,2,2,,,,,,,,,42.589682828009245,None,e,2.265437842987012,44.573724445013795,None,,,,,,,,,,,,,,,,,,,,,,,,,,,,,,,,,,,computer12/30,001,2021_Dec_30_1346,InfinityThesisTest5,2021.2.3,59.683624150420314,
"Prior to completing the study, you will complete 10 practice trials to familiarize yourself with the task. Your performance on these trials will determine your participation in the following study. ",,,,,0,3,3,3,,,,,,,,,46.873542962013744,None,e,0.6186586510011693,48.857207994005876,None,,,,,,,,,,,,,,,,,,,,,,,,,,,,,,,,,,,computer12/30,001,2021_Dec_30_1346,InfinityThesisTest5,2021.2.3,59.683624150420314,
"If the statement is true, press the “E” key on your keyboard with your left pointer finger; if the statement is false, press the “I” key on your keyboard with your right pointer finger. Press E to continue",,,,,0,4,4,4,,,,,,,,,49.52284116100054,None,e,0.2941856030083727,51.50734751400887,None,,,,,,,,,,,,,,,,,,,,,,,,,,,,,,,,,,,computer12/30,001,2021_Dec_30_1346,InfinityThesisTest5,2021.2.3,59.683624150420314,
,Humans cannot eat food,i,,,,,,,0,0,0,9,,,,,,,,,,,51.87426151600084,52.32432794600027,52.33988268200483,None,i,1,2.4424250120064244,52.33988268200483,None,None,None,,,,,,,,,,,,,,,,,,,,,,,,computer12/30,001,2021_Dec_30_1346,InfinityThesisTest5,2021.2.3,59.683624150420314,
,Mississippi is a country,i,,,,,,,0,1,1,8,,,,,,,,,,,54.8237160770077,55.273259404013515,55.30644255201332,None,i,1,3.394749386003241,55.30644255201332,None,58.30720557230525,58.506485032005,,,,,,,,,,,,,,,,,,,,,,,,computer12/30,001,2021_Dec_30_1346,InfinityThesisTest5,2021.2.3,59.683624150420314,
,Dinosaurs are extinct,e,,,,,,,0,2,2,1,,,,,,,,,,,58.72447051201016,59.17350611000438,59.20672870000999,None,e,1,1.4344816299999366,59.20672870000999,None,None,None,,,,,,,,,,,,,,,,,,,,,,,,computer12/30,001,2021_Dec_30_1346,InfinityThesisTest5,2021.2.3,59.683624150420314,
,Magenta is a color,e,,,,,,,0,3,3,2,,,,,,,,,,,60.674762008013204,61.125072355003795,61.157042688006186,None,e,1,1.2850242919957964,61.157042688006186,None,None,None,,,,,,,,,,,,,,,,,,,,,,,,computer12/30,001,2021_Dec_30_1346,InfinityThesisTest5,2021.2.3,59.683624150420314,
,A circle is a shape,e,,,,,,,0,4,4,0,,,,,,,,,,,62.475643365003634,62.92514086001029,62.95798192700022,None,e,1,0.8691110819927417,62.95798192700022,None,None,None,,,,,,,,,,,,,,,,,,,,,,,,computer12/30,001,2021_Dec_30_1346,InfinityThesisTest5,2021.2.3,59.683624150420314,
,Humans cannot breathe water,e,,,,,,,0,5,5,4,,,,,,,,,,,63.8742523730034,64.32397654400847,64.3408387380041,None,e,1,3.062925368998549,64.3408387380041,None,67.34144804430544,None,,,,,,,,,,,,,,,,,,,,,,,,computer12/30,001,2021_Dec_30_1346,InfinityThesisTest5,2021.2.3,59.683624150420314,
,Jupiter is the planet we live on,i,,,,,,,0,6,6,6,,,,,,,,,,,67.42580856900895,67.8903472610109,67.90767177101225,None,i,1,3.970814688000246,67.90767177101225,None,70.9080886173062,71.10748435700953,,,,,,,,,,,,,,,,,,,,,,,,computer12/30,001,2021_Dec_30_1346,InfinityThesisTest5,2021.2.3,59.683624150420314,
,The Earth is a star,i,,,,,,,0,7,7,7,,,,,,,,,,,71.90791606700805,72.35736481500498,72.39106343900494,None,i,1,1.330564810996293,72.39106343900494,None,None,None,,,,,,,,,,,,,,,,,,,,,,,,computer12/30,001,2021_Dec_30_1346,InfinityThesisTest5,2021.2.3,59.683624150420314,
,A truck is an animal,i,,,,,,,0,8,8,5,,,,,,,,,,,73.74237758399977,74.19204325700412,74.2258288830053,None,i,1,0.9327556019998156,74.2258288830053,None,None,None,,,,,,,,,,,,,,,,,,,,,,,,computer12/30,001,2021_Dec_30_1346,InfinityThesisTest5,2021.2.3,59.683624150420314,
,A clock is used to tell time,e,,,,,,,0,9,9,3,,,,,,,,,,,75.19148900100845,75.64291890700406,75.67569614101376,None,e,1,1.5008172939997166,75.67569614101376,None,None,None,,,,,,,,,,,,,,,,,,,,,,,,computer12/30,001,2021_Dec_30_1346,InfinityThesisTest5,2021.2.3,59.683624150420314,
,,,,,,,,,,,,,,,,,,,,,,,,,,,,,,,,,,77.2258683250111,None,e,2.4549310189904645,80.20914652300416,None,,,,,,,,,,,,,,,,,,computer12/30,001,2021_Dec_30_1346,InfinityThesisTest5,2021.2.3,59.683624150420314,
,,,Time cannot be further divided,i,,,,,,,,,0,0,0,46,,,,,,,,,,,,,,,,,,,,,,,,82.74240519900923,83.19209780800156,83.22591465600999,None,i,1,3.4429343739902833,83.22591465600999,None,86.2267079063051,86.42712732900691,,,,,,,computer12/30,001,2021_Dec_30_1346,InfinityThesisTest5,2021.2.3,59.683624150420314,
,,,Tornadoes reproduce,i,,,,,,,,,0,1,1,85,,,,,,,,,,,,,,,,,,,,,,,,86.6929212140094,87.14209560400923,87.17622506100452,None,i,1,1.3014313809981104,87.17622506100452,None,None,None,,,,,,,computer12/30,001,2021_Dec_30_1346,InfinityThesisTest5,2021.2.3,59.683624150420314,
,,,Five is finite,e,,,,,,,,,0,2,2,64,,,,,,,,,,,,,,,,,,,,,,,,88.51131229000748,88.95911297200655,88.99363121500937,None,e,1,1.412040256007458,88.99363121500937,None,None,None,,,,,,,computer12/30,001,2021_Dec_30_1346,InfinityThesisTest5,2021.2.3,59.683624150420314,
,,,Gravity has a molecular structure,i,,,,,,,,,0,3,3,91,,,,,,,,,,,,,,,,,,,,,,,,90.42588351400627,90.87719938000373,90.90997147500457,None,i,1,1.8125996029993985,90.90997147500457,None,None,None,,,,,,,computer12/30,001,2021_Dec_30_1346,InfinityThesisTest5,2021.2.3,59.683624150420314,
,,,Number can be further divided,e,,,,,,,,,0,4,4,63,,,,,,,,,,,,,,,,,,,,,,,,92.74359062701114,93.19355237200216,93.22593966001295,None,e,1,1.503451322001638,93.22593966001295,None,None,None,,,,,,,computer12/30,001,2021_Dec_30_1346,InfinityThesisTest5,2021.2.3,59.683624150420314,
,,,Space is infinite,e,,,,,,,,,0,5,5,49,,,,,,,,,,,,,,,,,,,,,,,,94.75953858000867,95.21012285200413,95.24317271501059,None,e,1,1.2031367089948617,95.24317271501059,None,None,None,,,,,,,computer12/30,001,2021_Dec_30_1346,InfinityThesisTest5,2021.2.3,59.683624150420314,
,,,Time cannot go on forever,i,,,,,,,,,0,6,6,44,,,,,,,,,,,,,,,,,,,,,,,,96.47678373999952,96.92696423600137,96.95988812900032,None,i,1,1.146300844004145,96.95988812900032,None,None,None,,,,,,,computer12/30,001,2021_Dec_30_1346,InfinityThesisTest5,2021.2.3,59.683624150420314,
,,,Intervals of time are finite,e,,,,,,,,,0,7,7,16,,,,,,,,,,,,,,,,,,,,,,,,98.12692302800133,98.5774031910114,98.61027960501087,None,e,1,4.025718638004037,98.61027960501087,None,101.61048896730354,None,,,,,,,computer12/30,001,2021_Dec_30_1346,InfinityThesisTest5,2021.2.3,59.683624150420314,
,,,Spatial intervals can be further divided,e,,,,,,,,,0,8,8,31,,,,,,,,,,,,,,,,,,,,,,,,102.6601959640102,103.11140285601141,103.14369598901249,None,e,1,2.0870199269993464,103.14369598901249,None,None,None,,,,,,,computer12/30,001,2021_Dec_30_1346,InfinityThesisTest5,2021.2.3,59.683624150420314,
,,,Frost is composed of matter,e,,,,,,,,,0,9,9,99,,,,,,,,,,,,,,,,,,,,,,,,105.25951464100217,105.71159961400554,105.7445573490113,None,e,1,1.3333825600129785,105.7445573490113,None,None,None,,,,,,,computer12/30,001,2021_Dec_30_1346,InfinityThesisTest5,2021.2.3,59.683624150420314,
,,,A minute can go on forever,i,,,,,,,,,0,10,10,5,,,,,,,,,,,,,,,,,,,,,,,,107.0940773300099,107.54411272700236,107.57835186700686,None,i,1,2.655001594001078,107.57835186700686,None,None,None,,,,,,,computer12/30,001,2021_Dec_30_1346,InfinityThesisTest5,2021.2.3,59.683624150420314,
,,,A minute has an end,e,,,,,,,,,0,11,11,2,,,,,,,,,,,,,,,,,,,,,,,,110.26097754800867,110.71067003700591,110.74509087001206,None,e,1,1.440260417002719,110.74509087001206,None,None,None,,,,,,,computer12/30,001,2021_Dec_30_1346,InfinityThesisTest5,2021.2.3,59.683624150420314,
,,,Humans can drink water,e,,,,,,,,,0,12,12,120,,,,,,,,,,,,,,,,,,,,,,,,112.2115571530012,112.66145950301143,112.69489520200295,None,e,1,1.0783132659998955,112.69489520200295,None,None,None,,,,,,,computer12/30,001,2021_Dec_30_1346,InfinityThesisTest5,2021.2.3,59.683624150420314,
,,,Bubbles can be put in a container,e,,,,,,,,,0,13,13,97,,,,,,,,,,,,,,,,,,,,,,,,113.79520303000754,114.24539393000305,114.27817682801106,None,e,1,4.737733879010193,114.27817682801106,None,117.27863347730018,None,,,,,,,computer12/30,001,2021_Dec_30_1346,InfinityThesisTest5,2021.2.3,59.683624150420314,
,,,Music have a molecular structure,i,,,,,,,,,0,14,14,90,,,,,,,,,,,,,,,,,,,,,,,,119.04434472700814,119.49536970400368,119.52815356300562,None,e,0,2.928424936995725,119.52815356300562,None,None,None,,,,,,,computer12/30,001,2021_Dec_30_1346,InfinityThesisTest5,2021.2.3,59.683624150420314,
,,,Echoes is composed of matter,i,,,,,,,,,0,15,15,88,,,,,,,,,,,,,,,,,,,,,,,,122.4777174690098,122.92920158601191,122.96237710901187,None,e,0,2.4332229739957256,122.96237710901187,None,None,None,,,,,,,computer12/30,001,2021_Dec_30_1346,InfinityThesisTest5,2021.2.3,59.683624150420314,
,,,Intervals of time cannot be further divided,i,,,,,,,,,0,16,16,22,,,,,,,,,,,,,,,,,,,,,,,,125.41208998400543,125.86173290900479,125.89617587400426,None,i,1,4.23597774899099,125.89617587400426,None,128.89655144830175,None,,,,,,,computer12/30,001,2021_Dec_30_1346,InfinityThesisTest5,2021.2.3,59.683624150420314,
,,,A truck is a vehicle,e,,,,,,,,,0,17,17,124,,,,,,,,,,,,,,,,,,,,,,,,130.16205368601368,130.61285594801302,130.64687229300034,None,e,1,1.377572985002189,130.64687229300034,None,None,None,,,,,,,computer12/30,001,2021_Dec_30_1346,InfinityThesisTest5,2021.2.3,59.683624150420314,
,,,Space cannot go on forever,i,,,,,,,,,0,18,18,52,,,,,,,,,,,,,,,,,,,,,,,,132.04637497600925,132.49644829300814,132.53031242500583,137.52989782301302,None,0,,132.53031242500583,None,135.5293265493121,None,,,,,,,computer12/30,001,2021_Dec_30_1346,InfinityThesisTest5,2021.2.3,59.683624150420314,
,,,Rocks have a molecular structure,e,,,,,,,,,0,19,19,81,,,,,,,,,,,,,,,,,,,,,,,,138.02924046599946,138.48079729100573,138.51342275500065,None,e,1,0.9484796820033807,138.51342275500065,138.02924046599946,None,None,,,,,,,computer12/30,001,2021_Dec_30_1346,InfinityThesisTest5,2021.2.3,59.683624150420314,
,,,A minute is endless,i,,,,,,,,,0,20,20,3,,,,,,,,,,,,,,,,,,,,,,,,139.4797929020133,139.92982577301154,139.9638709740102,None,i,1,1.0735963240003912,139.9638709740102,None,None,None,,,,,,,computer12/30,001,2021_Dec_30_1346,InfinityThesisTest5,2021.2.3,59.683624150420314,
,,,A motorcycle is a vehicle,e,,,,,,,,,0,21,21,123,,,,,,,,,,,,,,,,,,,,,,,,141.06308358500246,141.51328078300867,141.54667135899945,None,e,1,1.6937875159928808,141.54667135899945,None,None,None,,,,,,,computer12/30,001,2021_Dec_30_1346,InfinityThesisTest5,2021.2.3,59.683624150420314,
,,,A motorcycle is a person,i,,,,,,,,,0,22,22,143,,,,,,,,,,,,,,,,,,,,,,,,143.26396600301086,143.73137636200408,143.74688560700451,None,i,1,1.1459126690024277,143.74688560700451,None,None,None,,,,,,,computer12/30,001,2021_Dec_30_1346,InfinityThesisTest5,2021.2.3,59.683624150420314,
,,,Humans cannot breathe water,e,,,,,,,,,0,23,23,130,,,,,,,,,,,,,,,,,,,,,,,,144.91347158999997,145.3633960540028,145.39710041500803,None,e,1,2.188850895006908,145.39710041500803,None,None,None,,,,,,,computer12/30,001,2021_Dec_30_1346,InfinityThesisTest5,2021.2.3,59.683624150420314,
,,,Songs can be put in a container,i,,,,,,,,,0,24,24,107,,,,,,,,,,,,,,,,,,,,,,,,147.61432884000533,148.0646543220064,148.09729262300243,None,i,1,1.140586630004691,148.09729262300243,None,None,None,,,,,,,computer12/30,001,2021_Dec_30_1346,InfinityThesisTest5,2021.2.3,59.683624150420314,
,,,Jupiter is in our solar system,e,,,,,,,,,0,25,25,125,,,,,,,,,,,,,,,,,,,,,,,,149.26396114300587,149.71444936300395,149.7477290530078,None,e,1,1.1421208990068408,149.7477290530078,None,None,None,,,,,,,computer12/30,001,2021_Dec_30_1346,InfinityThesisTest5,2021.2.3,59.683624150420314,
,,,Spatial intervals cannot be further divided,i,,,,,,,,,0,26,26,30,,,,,,,,,,,,,,,,,,,,,,,,150.91397092600528,151.36482306000835,151.3977870360104,None,i,1,2.028014344003168,151.3977870360104,None,None,None,,,,,,,computer12/30,001,2021_Dec_30_1346,InfinityThesisTest5,2021.2.3,59.683624150420314,
,,,Spatial intervals are endless,i,,,,,,,,,0,27,27,27,,,,,,,,,,,,,,,,,,,,,,,,153.44682867800293,153.89709669101285,153.93132830801187,None,i,1,1.373307791989646,153.93132830801187,None,None,None,,,,,,,computer12/30,001,2021_Dec_30_1346,InfinityThesisTest5,2021.2.3,59.683624150420314,
,,,Numerical intervals are finite,e,,,,,,,,,0,28,28,32,,,,,,,,,,,,,,,,,,,,,,,,155.34819459100254,155.7977571310039,155.8148218730057,None,e,1,2.1207296080101514,155.8148218730057,None,None,None,,,,,,,computer12/30,001,2021_Dec_30_1346,InfinityThesisTest5,2021.2.3,59.683624150420314,
,,,Intervals of time have an end,e,,,,,,,,,0,29,29,18,,,,,,,,,,,,,,,,,,,,,,,,157.98162608701386,158.4315009990096,158.44736223200744,None,e,1,1.6319577870017383,158.44736223200744,None,None,None,,,,,,,computer12/30,001,2021_Dec_30_1346,InfinityThesisTest5,2021.2.3,59.683624150420314,
,,,The United States has a president,e,,,,,,,,,0,30,30,128,,,,,,,,,,,,,,,,,,,,,,,,160.09797808300937,160.54802926701086,160.5816282540036,None,e,1,1.0924649380031042,160.5816282540036,None,None,None,,,,,,,computer12/30,001,2021_Dec_30_1346,InfinityThesisTest5,2021.2.3,59.683624150420314,
,,,Five cannot go on forever,e,,,,,,,,,0,31,31,68,,,,,,,,,,,,,,,,,,,,,,,,161.69703488900268,162.14854630900663,162.182583161004,None,e,1,1.5674581409984967,162.182583161004,None,None,None,,,,,,,computer12/30,001,2021_Dec_30_1346,InfinityThesisTest5,2021.2.3,59.683624150420314,
,,,The Earth is a star,i,,,,,,,,,0,32,32,146,,,,,,,,,,,,,,,,,,,,,,,,163.7816981960059,164.2321014820045,164.2650648750132,None,i,1,0.9948745559959207,164.2650648750132,None,None,None,,,,,,,computer12/30,001,2021_Dec_30_1346,InfinityThesisTest5,2021.2.3,59.683624150420314,
,,,Space is finite,i,,,,,,,,,0,33,33,48,,,,,,,,,,,,,,,,,,,,,,,,165.28215616800298,165.73263927000517,165.76506757800234,None,i,1,4.401455636994797,165.76506757800234,None,168.7658266363025,None,,,,,,,computer12/30,001,2021_Dec_30_1346,InfinityThesisTest5,2021.2.3,59.683624150420314,
,,,Words have a molecular structure,i,,,,,,,,,0,34,34,110,,,,,,,,,,,,,,,,,,,,,,,,170.19863513200835,170.64944832300534,170.68237283400958,None,i,1,1.0772499189915834,170.68237283400958,None,None,None,,,,,,,computer12/30,001,2021_Dec_30_1346,InfinityThesisTest5,2021.2.3,59.683624150420314,
,,,Shadows are composed of matter,i,,,,,,,,,0,35,35,89,,,,,,,,,,,,,,,,,,,,,,,,171.78141508900444,172.2324407890119,172.26612929000112,None,i,1,4.310452282996266,172.26612929000112,None,175.2665903133049,175.4653369810112,,,,,,,computer12/30,001,2021_Dec_30_1346,InfinityThesisTest5,2021.2.3,59.683624150420314,
,,,An inch cannot be further divided,i,,,,,,,,,0,36,36,14,,,,,,,,,,,,,,,,,,,,,,,,176.59924985399994,177.0498042110121,177.0820734910085,None,i,1,4.086067986005219,177.0820734910085,None,180.08262597231368,None,,,,,,,computer12/30,001,2021_Dec_30_1346,InfinityThesisTest5,2021.2.3,59.683624150420314,
,,,Crocodiles are alive,e,,,,,,,,,0,37,37,72,,,,,,,,,,,,,,,,,,,,,,,,181.1985756540089,181.64972022200527,181.68283083300048,None,e,1,0.9605824969912646,181.68283083300048,None,None,None,,,,,,,computer12/30,001,2021_Dec_30_1346,InfinityThesisTest5,2021.2.3,59.683624150420314,
,,,Diamonds have a molecular structure,e,,,,,,,,,0,38,38,80,,,,,,,,,,,,,,,,,,,,,,,,182.66576301900204,183.11644400301157,183.1502263220027,None,e,1,3.6424163280025823,183.1502263220027,None,186.15001845930527,None,,,,,,,computer12/30,001,2021_Dec_30_1346,InfinityThesisTest5,2021.2.3,59.683624150420314,
,,,This sentence is written in Spanish,i,,,,,,,,,0,39,39,132,,,,,,,,,,,,,,,,,,,,,,,,186.81658581500233,187.2669025260111,187.30068813101389,None,i,1,1.060931617001188,187.30068813101389,None,None,None,,,,,,,computer12/30,001,2021_Dec_30_1346,InfinityThesisTest5,2021.2.3,59.683624150420314,
,,,A minute cannot go on forever,e,,,,,,,,,0,40,40,4,,,,,,,,,,,,,,,,,,,,,,,,188.38348017301178,188.8339133230038,188.86659406800754,193.86636967101367,None,0,,188.86659406800754,None,191.8672100403084,None,,,,,,,computer12/30,001,2021_Dec_30_1346,InfinityThesisTest5,2021.2.3,59.683624150420314,
,,,Five can go on forever,i,,,,,,,,,0,41,41,69,,,,,,,,,,,,,,,,,,,,,,,,194.36715379400994,194.81620393900084,194.8508534290013,None,i,1,1.1028428949939553,194.8508534290013,194.36715379400994,None,None,,,,,,,computer12/30,001,2021_Dec_30_1346,InfinityThesisTest5,2021.2.3,59.683624150420314,
,,,A triangle is a shape,e,,,,,,,,,0,42,42,114,,,,,,,,,,,,,,,,,,,,,,,,195.98281797500385,196.43455724901287,196.46746763700503,None,e,1,1.7009769800060894,196.46746763700503,None,None,None,,,,,,,computer12/30,001,2021_Dec_30_1346,InfinityThesisTest5,2021.2.3,59.683624150420314,
,,,Intervals of time are endless,i,,,,,,,,,0,43,43,19,,,,,,,,,,,,,,,,,,,,,,,,198.20087128900923,198.65073024500452,198.684660429004,None,i,1,2.3287127899966436,198.684660429004,None,None,None,,,,,,,computer12/30,001,2021_Dec_30_1346,InfinityThesisTest5,2021.2.3,59.683624150420314,
,,,Spatial intervals are infinite,i,,,,,,,,,0,44,44,25,,,,,,,,,,,,,,,,,,,,,,,,201.03480133200355,201.48473933200876,201.5179297499999,None,i,1,1.803344861997175,201.5179297499999,None,None,None,,,,,,,computer12/30,001,2021_Dec_30_1346,InfinityThesisTest5,2021.2.3,59.683624150420314,
,,,Intervals of time can go on forever,i,,,,,,,,,0,45,45,21,,,,,,,,,,,,,,,,,,,,,,,,203.3513753950101,203.8014308210113,203.8346273900097,None,i,1,1.7655074859940214,203.8346273900097,None,None,None,,,,,,,computer12/30,001,2021_Dec_30_1346,InfinityThesisTest5,2021.2.3,59.683624150420314,
,,,A minute can be further divided,e,,,,,,,,,0,46,46,7,,,,,,,,,,,,,,,,,,,,,,,,205.61778259700804,206.06838564800273,206.10146898600215,None,e,1,1.7753747329988983,206.10146898600215,None,None,None,,,,,,,computer12/30,001,2021_Dec_30_1346,InfinityThesisTest5,2021.2.3,59.683624150420314,
,,,A triangle is an animal,i,,,,,,,,,0,47,47,134,,,,,,,,,,,,,,,,,,,,,,,,207.90057919600804,208.35091072400974,208.38477414900262,None,i,1,0.8901193000056082,208.38477414900262,None,None,None,,,,,,,computer12/30,001,2021_Dec_30_1346,InfinityThesisTest5,2021.2.3,59.683624150420314,
,,,Frogs reproduce,e,,,,,,,,,0,48,48,76,,,,,,,,,,,,,,,,,,,,,,,,209.30009186601092,209.75047407600505,209.78412725499948,None,e,1,0.9706071219989099,209.78412725499948,None,None,None,,,,,,,computer12/30,001,2021_Dec_30_1346,InfinityThesisTest5,2021.2.3,59.683624150420314,
,,,Computers reproduce,i,,,,,,,,,0,49,49,86,,,,,,,,,,,,,,,,,,,,,,,,210.7850144940021,211.23379736000788,211.26758503900783,None,i,1,0.9139989910036093,211.26758503900783,None,None,None,,,,,,,computer12/30,001,2021_Dec_30_1346,InfinityThesisTest5,2021.2.3,59.683624150420314,
,,,Humans can breathe water,i,,,,,,,,,0,50,50,150,,,,,,,,,,,,,,,,,,,,,,,,212.20126600800722,212.65207086601004,212.68385458301054,None,i,1,1.2515700749936514,212.68385458301054,None,None,None,,,,,,,computer12/30,001,2021_Dec_30_1346,InfinityThesisTest5,2021.2.3,59.683624150420314,
,,,A horse is used to tell time,i,,,,,,,,,0,51,51,142,,,,,,,,,,,,,,,,,,,,,,,,213.96888083399972,214.41900717301178,214.45160973700695,None,i,1,1.1387530170031823,214.45160973700695,None,None,None,,,,,,,computer12/30,001,2021_Dec_30_1346,InfinityThesisTest5,2021.2.3,59.683624150420314,
,,,Concrete is composed of matter,e,,,,,,,,,0,52,52,79,,,,,,,,,,,,,,,,,,,,,,,,215.6185291800066,216.0686801700067,216.1013749470003,None,e,1,1.1332951990043512,216.1013749470003,None,None,None,,,,,,,computer12/30,001,2021_Dec_30_1346,InfinityThesisTest5,2021.2.3,59.683624150420314,
,,,Stones reproduce,i,,,,,,,,,0,53,53,106,,,,,,,,,,,,,,,,,,,,,,,,217.25249432001146,217.7022537800076,217.7359871760127,None,i,1,1.0262942109984579,217.7359871760127,None,None,None,,,,,,,computer12/30,001,2021_Dec_30_1346,InfinityThesisTest5,2021.2.3,59.683624150420314,
,,,Intervals of time cannot go on forever,e,,,,,,,,,0,54,54,20,,,,,,,,,,,,,,,,,,,,,,,,218.78521481600183,219.2349524480087,219.26953226300247,None,e,1,4.440522598000825,219.26953226300247,None,222.26919619430845,None,,,,,,,computer12/30,001,2021_Dec_30_1346,InfinityThesisTest5,2021.2.3,59.683624150420314,
,,,Time can go on forever,e,,,,,,,,,0,55,55,45,,,,,,,,,,,,,,,,,,,,,,,,223.73520136601292,224.18620150900097,224.21940192401235,None,e,1,2.160358038992854,224.21940192401235,None,None,None,,,,,,,computer12/30,001,2021_Dec_30_1346,InfinityThesisTest5,2021.2.3,59.683624150420314,
,,,Numerical intervals can be further divided,e,,,,,,,,,0,56,56,39,,,,,,,,,,,,,,,,,,,,,,,,226.41882704400632,226.87007028301014,226.88596608101216,None,e,1,3.580876090010861,226.88596608101216,None,229.8865346172999,None,,,,,,,computer12/30,001,2021_Dec_30_1346,InfinityThesisTest5,2021.2.3,59.683624150420314,
,,,Pollen has a molecular structure,e,,,,,,,,,0,57,57,100,,,,,,,,,,,,,,,,,,,,,,,,230.48603055201238,230.9369219670043,230.9699759590003,None,e,1,1.1679841019940795,230.9699759590003,None,None,None,,,,,,,computer12/30,001,2021_Dec_30_1346,InfinityThesisTest5,2021.2.3,59.683624150420314,
,,,Grass needs nutrients,e,,,,,,,,,0,58,58,94,,,,,,,,,,,,,,,,,,,,,,,,232.16848479201144,232.6205700920109,232.65338565400452,None,e,1,0.9115181590022985,232.65338565400452,None,None,None,,,,,,,computer12/30,001,2021_Dec_30_1346,InfinityThesisTest5,2021.2.3,59.683624150420314,
,,,Time is endless,e,,,,,,,,,0,59,59,43,,,,,,,,,,,,,,,,,,,,,,,,233.5857564540056,234.03694115200778,234.06953966901347,None,e,1,1.0404163969942601,234.06953966901347,None,None,None,,,,,,,computer12/30,001,2021_Dec_30_1346,InfinityThesisTest5,2021.2.3,59.683624150420314,
,,,Space cannot be further divided,i,,,,,,,,,0,60,60,54,,,,,,,,,,,,,,,,,,,,,,,,235.13560662600503,235.58626977600215,235.6188853670028,None,i,1,3.07584736100398,235.6188853670028,None,238.62048644230816,None,,,,,,,computer12/30,001,2021_Dec_30_1346,InfinityThesisTest5,2021.2.3,59.683624150420314,
,,,Intervals of time can be further divided,e,,,,,,,,,0,61,61,23,,,,,,,,,,,,,,,,,,,,,,,,238.71936038600688,239.17014161600673,239.20396684500156,None,e,1,2.4355724779888988,239.20396684500156,None,None,None,,,,,,,computer12/30,001,2021_Dec_30_1346,InfinityThesisTest5,2021.2.3,59.683624150420314,
,,,The president of the United States is Oprah,i,,,,,,,,,0,62,62,148,,,,,,,,,,,,,,,,,,,,,,,,241.68771538000146,242.13719843800936,242.1541381880088,None,i,1,1.0352872170042247,242.1541381880088,None,None,None,,,,,,,computer12/30,001,2021_Dec_30_1346,InfinityThesisTest5,2021.2.3,59.683624150420314,
,,,An inch can be further divided,e,,,,,,,,,0,63,63,15,,,,,,,,,,,,,,,,,,,,,,,,243.22036673300317,243.67091409600107,243.7043397840025,None,e,1,4.688727540997206,243.7043397840025,None,246.70385747630206,None,,,,,,,computer12/30,001,2021_Dec_30_1346,InfinityThesisTest5,2021.2.3,59.683624150420314,
,,,Number is finite,i,,,,,,,,,0,64,64,56,,,,,,,,,,,,,,,,,,,,,,,,248.4205273270054,248.87152734400297,248.904311367005,None,i,1,1.6752773790067295,248.904311367005,None,None,None,,,,,,,computer12/30,001,2021_Dec_30_1346,InfinityThesisTest5,2021.2.3,59.683624150420314,
,,,A pencil is used to write,e,,,,,,,,,0,65,65,131,,,,,,,,,,,,,,,,,,,,,,,,250.6045134820015,251.05471654501162,251.0871996700007,None,e,1,2.3062605370068923,251.0871996700007,None,None,None,,,,,,,computer12/30,001,2021_Dec_30_1346,InfinityThesisTest5,2021.2.3,59.683624150420314,
,,,Spatial intervals cannot go on forever,e,,,,,,,,,0,66,66,28,,,,,,,,,,,,,,,,,,,,,,,,253.420200862005,253.87037429500197,253.90494146500714,258.90550078600063,None,0,,253.90494146500714,None,256.90531616630614,257.10525295400294,,,,,,,computer12/30,001,2021_Dec_30_1346,InfinityThesisTest5,2021.2.3,59.683624150420314,
,,,Spatial intervals can go on forever,i,,,,,,,,,0,67,67,29,,,,,,,,,,,,,,,,,,,,,,,,259.4047513780097,259.85513355401054,259.8891287100123,None,i,1,2.772215047007194,259.8891287100123,259.4047513780097,None,None,,,,,,,computer12/30,001,2021_Dec_30_1346,InfinityThesisTest5,2021.2.3,59.683624150420314,
,,,An inch is finite,e,,,,,,,,,0,68,68,8,,,,,,,,,,,,,,,,,,,,,,,,262.68845105101354,263.13846758600266,263.1721796660131,None,i,0,1.5276617920026183,263.1721796660131,None,None,None,,,,,,,computer12/30,001,2021_Dec_30_1346,InfinityThesisTest5,2021.2.3,59.683624150420314,
,,,Numerical intervals have an end,e,,,,,,,,,0,69,69,34,,,,,,,,,,,,,,,,,,,,,,,,264.7219939589995,265.171933539008,265.2045249060029,None,e,1,4.250132057000883,265.2045249060029,None,268.20521827531337,None,,,,,,,computer12/30,001,2021_Dec_30_1346,InfinityThesisTest5,2021.2.3,59.683624150420314,
,,,Time can be further divided,e,,,,,,,,,0,70,70,47,,,,,,,,,,,,,,,,,,,,,,,,269.47207293000247,269.9231198910129,269.95518103400536,None,e,1,1.11557665100554,269.95518103400536,None,None,None,,,,,,,computer12/30,001,2021_Dec_30_1346,InfinityThesisTest5,2021.2.3,59.683624150420314,
,,,A square is a shape,e,,,,,,,,,0,71,71,113,,,,,,,,,,,,,,,,,,,,,,,,271.08867542500957,271.5397485780122,271.5727841750049,None,e,1,1.0779399730090518,271.5727841750049,None,None,None,,,,,,,computer12/30,001,2021_Dec_30_1346,InfinityThesisTest5,2021.2.3,59.683624150420314,
,,,Jupiter is the planet we live on,i,,,,,,,,,0,72,72,145,,,,,,,,,,,,,,,,,,,,,,,,272.6724006870063,273.12262473501323,273.1566711330088,None,i,1,2.345631806005258,273.1566711330088,None,None,None,,,,,,,computer12/30,001,2021_Dec_30_1346,InfinityThesisTest5,2021.2.3,59.683624150420314,
,,,Space can be further divided,e,,,,,,,,,0,73,73,55,,,,,,,,,,,,,,,,,,,,,,,,275.5222222410084,275.97298146500543,276.0068860510073,None,e,1,3.056602598997415,276.0068860510073,None,279.0072886493028,None,,,,,,,computer12/30,001,2021_Dec_30_1346,InfinityThesisTest5,2021.2.3,59.683624150420314,
,,,Clocks are alive,i,,,,,,,,,0,74,74,82,,,,,,,,,,,,,,,,,,,,,,,,279.089445361009,279.5400767530082,279.5737207040074,None,i,1,1.8020518729899777,279.5737207040074,None,None,None,,,,,,,computer12/30,001,2021_Dec_30_1346,InfinityThesisTest5,2021.2.3,59.683624150420314,
,,,Number cannot go on forever,i,,,,,,,,,0,75,75,60,,,,,,,,,,,,,,,,,,,,,,,,281.4062643979996,281.85643532901304,281.89024746201176,None,i,1,2.6593943379994016,281.89024746201176,None,None,None,,,,,,,computer12/30,001,2021_Dec_30_1346,InfinityThesisTest5,2021.2.3,59.683624150420314,
,,,A square is a color,i,,,,,,,,,0,76,76,133,,,,,,,,,,,,,,,,,,,,,,,,284.5735179740004,285.02279464401363,285.0573157970066,None,i,1,0.9495824399928097,285.0573157970066,None,None,None,,,,,,,computer12/30,001,2021_Dec_30_1346,InfinityThesisTest5,2021.2.3,59.683624150420314,
,,,Thoughts are composed of matter,i,,,,,,,,,0,77,77,109,,,,,,,,,,,,,,,,,,,,,,,,286.04008084400266,286.49055538400717,286.5235109050118,None,i,1,1.2789492640004028,286.5235109050118,None,None,None,,,,,,,computer12/30,001,2021_Dec_30_1346,InfinityThesisTest5,2021.2.3,59.683624150420314,
,,,Bricks can be put in a container,e,,,,,,,,,0,78,78,77,,,,,,,,,,,,,,,,,,,,,,,,287.82340633901185,288.27360669200425,288.3076551990089,None,e,1,1.1188294729945483,288.3076551990089,None,None,None,,,,,,,computer12/30,001,2021_Dec_30_1346,InfinityThesisTest5,2021.2.3,59.683624150420314,
,,,Number can go on forever,e,,,,,,,,,0,79,79,61,,,,,,,,,,,,,,,,,,,,,,,,289.4568902780011,289.9074560600129,289.9401441020018,None,e,1,1.1191018290119246,289.9401441020018,None,None,None,,,,,,,computer12/30,001,2021_Dec_30_1346,InfinityThesisTest5,2021.2.3,59.683624150420314,
,,,Saliva has a molecular structure,e,,,,,,,,,0,80,80,101,,,,,,,,,,,,,,,,,,,,,,,,291.09083118700073,291.54112794200773,291.5741213700094,None,e,1,1.2250454390014056,291.5741213700094,None,None,None,,,,,,,computer12/30,001,2021_Dec_30_1346,InfinityThesisTest5,2021.2.3,59.683624150420314,
,,,Space is endless,e,,,,,,,,,0,81,81,51,,,,,,,,,,,,,,,,,,,,,,,,292.82365332001064,293.2743962280074,293.3064629710134,None,e,1,0.9794906780007295,293.3064629710134,None,None,None,,,,,,,computer12/30,001,2021_Dec_30_1346,InfinityThesisTest5,2021.2.3,59.683624150420314,
,,,Five has an end,e,,,,,,,,,0,82,82,66,,,,,,,,,,,,,,,,,,,,,,,,294.30737392000447,294.7564115230052,294.79158737500256,None,e,1,1.4522837009862997,294.79158737500256,None,None,None,,,,,,,computer12/30,001,2021_Dec_30_1346,InfinityThesisTest5,2021.2.3,59.683624150420314,
,,,Dumbells are composed of matter,e,,,,,,,,,0,83,83,78,,,,,,,,,,,,,,,,,,,,,,,,296.27473698201356,296.7245902190043,296.75754197301285,None,e,1,1.1691173940052977,296.75754197301285,None,None,None,,,,,,,computer12/30,001,2021_Dec_30_1346,InfinityThesisTest5,2021.2.3,59.683624150420314,
,,,Bacteria are alive,e,,,,,,,,,0,84,84,93,,,,,,,,,,,,,,,,,,,,,,,,297.9563520780066,298.40831318301207,298.4412474680139,None,e,1,0.9265109309926629,298.4412474680139,None,None,None,,,,,,,computer12/30,001,2021_Dec_30_1346,InfinityThesisTest5,2021.2.3,59.683624150420314,
,,,Five is endless,i,,,,,,,,,0,85,85,67,,,,,,,,,,,,,,,,,,,,,,,,299.3916382919997,299.8419003420131,299.87484676900203,None,i,1,1.17679658299312,299.87484676900203,None,None,None,,,,,,,computer12/30,001,2021_Dec_30_1346,InfinityThesisTest5,2021.2.3,59.683624150420314,
,,,Number cannot be further divided,i,,,,,,,,,0,86,86,62,,,,,,,,,,,,,,,,,,,,,,,,301.07412200000545,301.5255198980012,301.5580591270118,306.5584971430071,i,1,5.073310728010256,301.5580591270118,None,304.5586846163089,None,,,,,,,computer12/30,001,2021_Dec_30_1346,InfinityThesisTest5,2021.2.3,59.683624150420314,
,,,Magenta is a shape,i,,,,,,,,,0,87,87,137,,,,,,,,,,,,,,,,,,,,,,,,306.6577476130042,307.1081420900009,307.14186305300973,None,i,1,0.9661176809895551,307.14186305300973,None,None,None,,,,,,,computer12/30,001,2021_Dec_30_1346,InfinityThesisTest5,2021.2.3,59.683624150420314,
,,,Number has an end,i,,,,,,,,,0,88,88,58,,,,,,,,,,,,,,,,,,,,,,,,308.12399845500477,308.57569838700874,308.6086072800099,None,i,1,0.9770830469933571,308.6086072800099,None,None,None,,,,,,,computer12/30,001,2021_Dec_30_1346,InfinityThesisTest5,2021.2.3,59.683624150420314,
,,,Time is finite,i,,,,,,,,,0,89,89,40,,,,,,,,,,,,,,,,,,,,,,,,309.60824252500606,310.0591675080068,310.09205939801177,None,i,1,1.2694690700009232,310.09205939801177,None,None,None,,,,,,,computer12/30,001,2021_Dec_30_1346,InfinityThesisTest5,2021.2.3,59.683624150420314,
,,,Numerical intervals can go on forever,i,,,,,,,,,0,90,90,37,,,,,,,,,,,,,,,,,,,,,,,,311.3917249280057,311.84209242800716,311.87578678000136,None,i,1,2.9992618289979873,311.87578678000136,None,314.87654486230457,None,,,,,,,computer12/30,001,2021_Dec_30_1346,InfinityThesisTest5,2021.2.3,59.683624150420314,
,,,An inch is endless,i,,,,,,,,,0,91,91,11,,,,,,,,,,,,,,,,,,,,,,,,314.89256886800285,315.3426262280118,315.3763651110057,None,i,1,1.7609264179918682,315.3763651110057,None,None,None,,,,,,,computer12/30,001,2021_Dec_30_1346,InfinityThesisTest5,2021.2.3,59.683624150420314,
,,,Mississippi is a country,i,,,,,,,,,0,92,92,147,,,,,,,,,,,,,,,,,,,,,,,,317.15889851000975,317.609446611008,317.64207385601185,None,i,1,1.1322262280009454,317.64207385601185,None,None,None,,,,,,,computer12/30,001,2021_Dec_30_1346,InfinityThesisTest5,2021.2.3,59.683624150420314,
,,,Dinosaurs are extinct,e,,,,,,,,,0,93,93,116,,,,,,,,,,,,,,,,,,,,,,,,318.7925224960054,319.2427642410039,319.2752426740044,None,e,1,1.232093236001674,319.2752426740044,None,None,None,,,,,,,computer12/30,001,2021_Dec_30_1346,InfinityThesisTest5,2021.2.3,59.683624150420314,
,,,Foam are composed of matter,e,,,,,,,,,0,94,94,98,,,,,,,,,,,,,,,,,,,,,,,,320.52506666100817,320.9762916239997,321.0100694890134,None,e,1,3.814144963005674,321.0100694890134,None,324.00888875829986,None,,,,,,,computer12/30,001,2021_Dec_30_1346,InfinityThesisTest5,2021.2.3,59.683624150420314,
,,,An inch is infinite,i,,,,,,,,,0,95,95,9,,,,,,,,,,,,,,,,,,,,,,,,324.84234794000804,325.2925172950054,325.32669278800313,None,i,1,3.903869453992229,325.32669278800313,None,328.3269420373137,None,,,,,,,computer12/30,001,2021_Dec_30_1346,InfinityThesisTest5,2021.2.3,59.683624150420314,
,,,Time is infinite,e,,,,,,,,,0,96,96,41,,,,,,,,,,,,,,,,,,,,,,,,329.26009098801296,329.7094689300138,329.74338395000086,None,e,1,1.299971023996477,329.74338395000086,None,None,None,,,,,,,computer12/30,001,2021_Dec_30_1346,InfinityThesisTest5,2021.2.3,59.683624150420314,
,,,Spatial intervals are finite,e,,,,,,,,,0,97,97,24,,,,,,,,,,,,,,,,,,,,,,,,331.05914114500047,331.5084138050006,331.5433132640028,None,i,0,1.815884696014109,331.5433132640028,None,None,None,,,,,,,computer12/30,001,2021_Dec_30_1346,InfinityThesisTest5,2021.2.3,59.683624150420314,
,,,Humans can eat food,e,,,,,,,,,0,98,98,121,,,,,,,,,,,,,,,,,,,,,,,,333.37566784401133,333.82632918900345,333.8601648740005,None,e,1,2.384674820001237,333.8601648740005,None,None,None,,,,,,,computer12/30,001,2021_Dec_30_1346,InfinityThesisTest5,2021.2.3,59.683624150420314,
,,,A rocketship is used to write,i,,,,,,,,,0,99,99,151,,,,,,,,,,,,,,,,,,,,,,,,336.27704742101196,336.72707382700173,336.76027293200605,None,i,1,1.3795297449978534,336.76027293200605,None,None,None,,,,,,,computer12/30,001,2021_Dec_30_1346,InfinityThesisTest5,2021.2.3,59.683624150420314,
,,,Number is infinite,e,,,,,,,,,0,100,100,57,,,,,,,,,,,,,,,,,,,,,,,,338.1595372990123,338.61108225100907,338.64372948900564,None,e,1,3.9802663910086267,338.64372948900564,None,341.64418038830917,None,,,,,,,computer12/30,001,2021_Dec_30_1346,InfinityThesisTest5,2021.2.3,59.683624150420314,
,,,Numerical intervals are infinite,i,,,,,,,,,0,101,101,33,,,,,,,,,,,,,,,,,,,,,,,,342.64284978000796,343.0950647560094,343.12790817600035,None,i,1,1.6579484039975796,343.12790817600035,None,None,None,,,,,,,computer12/30,001,2021_Dec_30_1346,InfinityThesisTest5,2021.2.3,59.683624150420314,
,,,An inch can go on forever,i,,,,,,,,,0,102,102,13,,,,,,,,,,,,,,,,,,,,,,,,344.81058165700233,345.2610127920052,345.2950972440012,350.2949066260044,None,0,,345.2950972440012,None,348.2940321263042,None,,,,,,,computer12/30,001,2021_Dec_30_1346,InfinityThesisTest5,2021.2.3,59.683624150420314,
,,,There are fifty states in the United States,e,,,,,,,,,0,103,103,129,,,,,,,,,,,,,,,,,,,,,,,,350.79408580300515,351.24405274901073,351.2781126250047,None,e,1,1.3075482590065803,351.2781126250047,350.79408580300515,None,None,,,,,,,computer12/30,001,2021_Dec_30_1346,InfinityThesisTest5,2021.2.3,59.683624150420314,
,,,Comets are alive,i,,,,,,,,,0,104,104,83,,,,,,,,,,,,,,,,,,,,,,,,352.61120485801075,353.0616372520017,353.095036816012,None,i,1,0.8721046250138897,353.095036816012,None,None,None,,,,,,,computer12/30,001,2021_Dec_30_1346,InfinityThesisTest5,2021.2.3,59.683624150420314,
,,,Mittens need nutrients,i,,,,,,,,,0,105,105,104,,,,,,,,,,,,,,,,,,,,,,,,354.0113221770007,354.461419587009,354.4786068120011,None,i,1,1.0266553170076804,354.4786068120011,None,None,None,,,,,,,computer12/30,001,2021_Dec_30_1346,InfinityThesisTest5,2021.2.3,59.683624150420314,
,,,Orange is a shape,i,,,,,,,,,0,106,106,138,,,,,,,,,,,,,,,,,,,,,,,,355.5283474410098,355.9792066370137,356.0120761940052,None,i,1,0.9661899089987855,356.0120761940052,None,None,None,,,,,,,computer12/30,001,2021_Dec_30_1346,InfinityThesisTest5,2021.2.3,59.683624150420314,
,,,Stories are composed of matter,i,,,,,,,,,0,107,107,108,,,,,,,,,,,,,,,,,,,,,,,,356.9937770200049,357.44558698699984,357.47812536000856,None,i,1,1.618785056998604,357.47812536000856,None,None,None,,,,,,,computer12/30,001,2021_Dec_30_1346,InfinityThesisTest5,2021.2.3,59.683624150420314,
,,,A truck is an animal,i,,,,,,,,,0,108,108,144,,,,,,,,,,,,,,,,,,,,,,,,359.1286238090106,359.57862301201385,359.61148905201117,None,i,1,1.0844608549959958,359.61148905201117,None,None,None,,,,,,,computer12/30,001,2021_Dec_30_1346,InfinityThesisTest5,2021.2.3,59.683624150420314,
,,,Pelicans are alive,e,,,,,,,,,0,109,109,73,,,,,,,,,,,,,,,,,,,,,,,,360.71143765099987,361.1601461770042,361.19436517200666,None,e,1,0.8836322559945984,361.19436517200666,None,None,None,,,,,,,computer12/30,001,2021_Dec_30_1346,InfinityThesisTest5,2021.2.3,59.683624150420314,
,,,Humans can breathe water,i,,,,,,,,,0,110,110,140,,,,,,,,,,,,,,,,,,,,,,,,362.0954172530037,362.54582545300946,362.57956734500476,None,i,1,1.4080031139892526,362.57956734500476,None,None,None,,,,,,,computer12/30,001,2021_Dec_30_1346,InfinityThesisTest5,2021.2.3,59.683624150420314,
,,,Turtles need nutrients,e,,,,,,,,,0,111,111,74,,,,,,,,,,,,,,,,,,,,,,,,364.01150416101154,364.4614314040082,364.49491889300407,None,e,1,3.058581192002748,364.49491889300407,None,367.49613196730496,None,,,,,,,computer12/30,001,2021_Dec_30_1346,InfinityThesisTest5,2021.2.3,59.683624150420314,
,,,Humans cannot eat food,i,,,,,,,,,0,112,112,141,,,,,,,,,,,,,,,,,,,,,,,,367.57858781301184,368.02849233101006,368.0629026660026,None,i,1,1.5714577000035206,368.0629026660026,None,None,None,,,,,,,computer12/30,001,2021_Dec_30_1346,InfinityThesisTest5,2021.2.3,59.683624150420314,
,,,Five cannot be further divided,i,,,,,,,,,0,113,113,70,,,,,,,,,,,,,,,,,,,,,,,,369.6618324209994,370.1122957480111,370.14636208901356,None,e,0,4.224906518997159,370.14636208901356,None,373.14676775031256,None,,,,,,,computer12/30,001,2021_Dec_30_1346,InfinityThesisTest5,2021.2.3,59.683624150420314,
,,,Number is endless,e,,,,,,,,,0,114,114,59,,,,,,,,,,,,,,,,,,,,,,,,374.3964110320085,374.8462646650005,374.8803632840136,None,e,1,0.9287036489986349,374.8803632840136,None,None,None,,,,,,,computer12/30,001,2021_Dec_30_1346,InfinityThesisTest5,2021.2.3,59.683624150420314,
,,,Time has an end,i,,,,,,,,,0,115,115,42,,,,,,,,,,,,,,,,,,,,,,,,375.8292836170003,376.2802176900004,376.313790375003,None,i,1,1.2669796539994422,376.313790375003,None,None,None,,,,,,,computer12/30,001,2021_Dec_30_1346,InfinityThesisTest5,2021.2.3,59.683624150420314,
,,,Tigers reproduce,e,,,,,,,,,0,116,116,75,,,,,,,,,,,,,,,,,,,,,,,,377.6132901950041,378.06261690201063,378.0970135230018,None,e,1,1.871618443998159,378.0970135230018,None,None,None,,,,,,,computer12/30,001,2021_Dec_30_1346,InfinityThesisTest5,2021.2.3,59.683624150420314,
,,,A minute is infinite,i,,,,,,,,,0,117,117,1,,,,,,,,,,,,,,,,,,,,,,,,379.99610312200093,380.44730989700474,380.4800446920126,None,i,1,3.6369863500003703,380.4800446920126,None,383.4795205873117,None,,,,,,,computer12/30,001,2021_Dec_30_1346,InfinityThesisTest5,2021.2.3,59.683624150420314,
,,,Mushrooms reproduce,e,,,,,,,,,0,118,118,96,,,,,,,,,,,,,,,,,,,,,,,,384.1472247680067,384.59763183101313,384.63070327100286,None,e,1,2.6158077479922213,384.63070327100286,None,None,None,,,,,,,computer12/30,001,2021_Dec_30_1346,InfinityThesisTest5,2021.2.3,59.683624150420314,
,,,A clock is used to tell time,e,,,,,,,,,0,119,119,122,,,,,,,,,,,,,,,,,,,,,,,,387.2805418140051,387.7308756140119,387.76440420800645,None,e,1,1.645850849992712,387.76440420800645,None,None,None,,,,,,,computer12/30,001,2021_Dec_30_1346,InfinityThesisTest5,2021.2.3,59.683624150420314,
,,,Oaks reproduce,e,,,,,,,,,0,120,120,95,,,,,,,,,,,,,,,,,,,,,,,,389.43058060100884,389.8805004740134,389.91320502701274,None,e,1,0.8370876089902595,389.91320502701274,None,None,None,,,,,,,computer12/30,001,2021_Dec_30_1346,InfinityThesisTest5,2021.2.3,59.683624150420314,
,,,A minute is finite,e,,,,,,,,,0,121,121,0,,,,,,,,,,,,,,,,,,,,,,,,390.78054423601134,391.24658502500097,391.26470335701015,None,i,0,2.343482569005573,391.26470335701015,None,None,None,,,,,,,computer12/30,001,2021_Dec_30_1346,InfinityThesisTest5,2021.2.3,59.683624150420314,
,,,This sentence is written in English,e,,,,,,,,,0,122,122,112,,,,,,,,,,,,,,,,,,,,,,,,393.630237579011,394.08117884901003,394.11497899401,None,e,1,2.598973225001828,394.11497899401,None,None,None,,,,,,,computer12/30,001,2021_Dec_30_1346,InfinityThesisTest5,2021.2.3,59.683624150420314,
,,,Space can go on forever,e,,,,,,,,,0,123,123,53,,,,,,,,,,,,,,,,,,,,,,,,396.7304739650135,397.1814008500078,397.21484696700645,None,e,1,2.9909164029959356,397.21484696700645,None,400.2157201413094,None,,,,,,,computer12/30,001,2021_Dec_30_1346,InfinityThesisTest5,2021.2.3,59.683624150420314,
,,,Color can be put in a container,i,,,,,,,,,0,124,124,87,,,,,,,,,,,,,,,,,,,,,,,,400.23071415600134,400.6817513460119,400.7153205030045,None,i,1,1.0503666950098705,400.7153205030045,None,None,None,,,,,,,computer12/30,001,2021_Dec_30_1346,InfinityThesisTest5,2021.2.3,59.683624150420314,
,,,Dreams have a molecular structure,i,,,,,,,,,0,125,125,111,,,,,,,,,,,,,,,,,,,,,,,,401.7981346250017,402.2485695300129,402.28098484300426,None,i,1,2.7273325659916736,402.28098484300426,None,None,None,,,,,,,computer12/30,001,2021_Dec_30_1346,InfinityThesisTest5,2021.2.3,59.683624150420314,
,,,The Earth is a planet,e,,,,,,,,,0,126,126,126,,,,,,,,,,,,,,,,,,,,,,,,405.03150983300293,405.4817091690056,405.5141820960125,None,e,1,1.1229970620042877,405.5141820960125,None,None,None,,,,,,,computer12/30,001,2021_Dec_30_1346,InfinityThesisTest5,2021.2.3,59.683624150420314,
,,,An inch cannot go on forever,e,,,,,,,,,0,127,127,12,,,,,,,,,,,,,,,,,,,,,,,,406.6654855950037,407.1155072570109,407.1483439020085,None,e,1,3.31177724400186,407.1483439020085,None,410.1488628053077,None,,,,,,,computer12/30,001,2021_Dec_30_1346,InfinityThesisTest5,2021.2.3,59.683624150420314,
,,,Numerical intervals cannot be further divided,i,,,,,,,,,0,128,128,38,,,,,,,,,,,,,,,,,,,,,,,,410.48228834000474,410.93215462501394,410.96475311800896,None,i,1,2.9740712409984553,410.96475311800896,None,413.9654966483096,None,,,,,,,computer12/30,001,2021_Dec_30_1346,InfinityThesisTest5,2021.2.3,59.683624150420314,
,,,Orange is a color,e,,,,,,,,,0,129,129,118,,,,,,,,,,,,,,,,,,,,,,,,413.96543435200874,414.4158618700021,414.4484713300044,None,e,1,2.103142360007041,414.4484713300044,None,None,None,,,,,,,computer12/30,001,2021_Dec_30_1346,InfinityThesisTest5,2021.2.3,59.683624150420314,
,,,Numerical intervals cannot go on forever,e,,,,,,,,,0,130,130,36,,,,,,,,,,,,,,,,,,,,,,,,416.5816604020074,417.03293338700314,417.066150277009,None,e,1,4.38514024799224,417.066150277009,None,420.0665804593038,None,,,,,,,computer12/30,001,2021_Dec_30_1346,InfinityThesisTest5,2021.2.3,59.683624150420314,
,,,Intervals of time are infinite,i,,,,,,,,,0,131,131,17,,,,,,,,,,,,,,,,,,,,,,,,421.4840824710118,421.9499045620032,421.9660833480011,None,i,1,3.4724383459979435,421.9660833480011,None,424.9663858323067,None,,,,,,,computer12/30,001,2021_Dec_30_1346,InfinityThesisTest5,2021.2.3,59.683624150420314,
,,,Yellow is an animal,i,,,,,,,,,0,132,132,139,,,,,,,,,,,,,,,,,,,,,,,,425.4672371530032,425.9160316769994,425.9503383740084,None,i,1,2.053018524995423,425.9503383740084,None,None,None,,,,,,,computer12/30,001,2021_Dec_30_1346,InfinityThesisTest5,2021.2.3,59.683624150420314,
,,,Spatial intervals have an end,e,,,,,,,,,0,133,133,26,,,,,,,,,,,,,,,,,,,,,,,,428.0332986630092,428.4838700990076,428.51685144900694,None,i,0,2.301155781999114,428.51685144900694,None,None,None,,,,,,,computer12/30,001,2021_Dec_30_1346,InfinityThesisTest5,2021.2.3,59.683624150420314,
,,,The United States is a country,e,,,,,,,,,0,134,134,127,,,,,,,,,,,,,,,,,,,,,,,,430.84985960701306,431.29973333700036,431.3340504299995,None,e,1,2.7239346639980795,431.3340504299995,None,None,None,,,,,,,computer12/30,001,2021_Dec_30_1346,InfinityThesisTest5,2021.2.3,59.683624150420314,
,,,A minute cannot be further divided,i,,,,,,,,,0,135,135,6,,,,,,,,,,,,,,,,,,,,,,,,434.0835049580055,434.5339339580096,434.5674244480033,None,i,1,1.7503616559988586,434.5674244480033,None,None,None,,,,,,,computer12/30,001,2021_Dec_30_1346,InfinityThesisTest5,2021.2.3,59.683624150420314,
,,,A circle is a shape,e,,,,,,,,,0,136,136,115,,,,,,,,,,,,,,,,,,,,,,,,436.3504167430074,436.80054499499965,436.83411486000114,None,e,1,1.2104789870063541,436.83411486000114,None,None,None,,,,,,,computer12/30,001,2021_Dec_30_1346,InfinityThesisTest5,2021.2.3,59.683624150420314,
,,,Hammers are alive,i,,,,,,,,,0,137,137,102,,,,,,,,,,,,,,,,,,,,,,,,438.0669435560121,438.5178062949999,438.55007913400186,None,i,1,1.0244187789940042,438.55007913400186,None,None,None,,,,,,,computer12/30,001,2021_Dec_30_1346,InfinityThesisTest5,2021.2.3,59.683624150420314,
,,,Numerical intervals are endless,i,,,,,,,,,0,138,138,35,,,,,,,,,,,,,,,,,,,,,,,,439.60041248900234,440.0511275080062,440.08450872500543,None,i,1,2.4859036879934138,440.08450872500543,None,None,None,,,,,,,computer12/30,001,2021_Dec_30_1346,InfinityThesisTest5,2021.2.3,59.683624150420314,
,,,Tables reproduce,i,,,,,,,,,0,139,139,105,,,,,,,,,,,,,,,,,,,,,,,,442.60123566701077,443.0514930250065,443.0844121870032,None,i,1,1.5979827789997216,443.0844121870032,None,None,None,,,,,,,computer12/30,001,2021_Dec_30_1346,InfinityThesisTest5,2021.2.3,59.683624150420314,
,,,Robots need nutrients,i,,,,,,,,,0,140,140,84,,,,,,,,,,,,,,,,,,,,,,,,444.7003239790065,445.1506633520039,445.1849268620135,None,i,1,1.0493606839881977,445.1849268620135,None,None,None,,,,,,,computer12/30,001,2021_Dec_30_1346,InfinityThesisTest5,2021.2.3,59.683624150420314,
,,,Algae is alive,e,,,,,,,,,0,141,141,92,,,,,,,,,,,,,,,,,,,,,,,,446.266601758005,446.71809643700544,446.75188607200107,None,e,1,1.5032566299923928,446.75188607200107,None,None,None,,,,,,,computer12/30,001,2021_Dec_30_1346,InfinityThesisTest5,2021.2.3,59.683624150420314,
,,,Five can be further divided,e,,,,,,,,,0,142,142,71,,,,,,,,,,,,,,,,,,,,,,,,448.2844500680076,448.7348220420099,448.7680403060076,None,e,1,1.5958839090017136,448.7680403060076,None,None,None,,,,,,,computer12/30,001,2021_Dec_30_1346,InfinityThesisTest5,2021.2.3,59.683624150420314,
,,,An inch has an end,e,,,,,,,,,0,143,143,10,,,,,,,,,,,,,,,,,,,,,,,,450.38503712000966,450.83366091801145,450.868254482004,None,i,0,1.0486513640062185,450.868254482004,None,None,None,,,,,,,computer12/30,001,2021_Dec_30_1346,InfinityThesisTest5,2021.2.3,59.683624150420314,
,,,Five is infinite,i,,,,,,,,,0,144,144,65,,,,,,,,,,,,,,,,,,,,,,,,451.9350514770049,452.3855859780015,452.41839982800593,None,e,0,1.0272584990016185,452.41839982800593,None,None,None,,,,,,,computer12/30,001,2021_Dec_30_1346,InfinityThesisTest5,2021.2.3,59.683624150420314,
,,,There are ninty states in the United States,i,,,,,,,,,0,145,145,149,,,,,,,,,,,,,,,,,,,,,,,,453.46839948301204,453.91844320601376,453.95096921600634,None,i,1,1.1815689409995684,453.95096921600634,None,None,None,,,,,,,computer12/30,001,2021_Dec_30_1346,InfinityThesisTest5,2021.2.3,59.683624150420314,
,,,Dinosaurs are not extinct,i,,,,,,,,,0,146,146,136,,,,,,,,,,,,,,,,,,,,,,,,455.1518213060044,455.60228271801316,455.6346939730138,None,i,1,1.5208233000012115,455.6346939730138,None,None,None,,,,,,,computer12/30,001,2021_Dec_30_1346,InfinityThesisTest5,2021.2.3,59.683624150420314,
,,,Forks are alive,i,,,,,,,,,0,147,147,103,,,,,,,,,,,,,,,,,,,,,,,,457.18503563800186,457.6361367660138,457.6688357360108,None,i,1,1.851478386000963,457.6688357360108,None,None,None,,,,,,,computer12/30,001,2021_Dec_30_1346,InfinityThesisTest5,2021.2.3,59.683624150420314,
,,,Space has an end,i,,,,,,,,,0,148,148,50,,,,,,,,,,,,,,,,,,,,,,,,459.55206903601356,460.00251499400474,460.0358264920069,None,i,1,1.163316890000715,460.0358264920069,None,None,None,,,,,,,computer12/30,001,2021_Dec_30_1346,InfinityThesisTest5,2021.2.3,59.683624150420314,
,,,Magenta is a color,e,,,,,,,,,0,149,149,117,,,,,,,,,,,,,,,,,,,,,,,,461.21785993401136,461.66877952100185,461.7026209169999,None,e,1,0.9524891309993109,461.7026209169999,None,None,None,,,,,,,computer12/30,001,2021_Dec_30_1346,InfinityThesisTest5,2021.2.3,59.683624150420314,
,,,Yellow is a color,e,,,,,,,,,0,150,150,119,,,,,,,,,,,,,,,,,,,,,,,,462.6846275620046,463.1349585440039,463.1692163710104,None,e,1,0.7288674809969962,463.1692163710104,None,None,None,,,,,,,computer12/30,001,2021_Dec_30_1346,InfinityThesisTest5,2021.2.3,59.683624150420314,
,,,A circle is a flavor,i,,,,,,,,,0,151,151,135,,,,,,,,,,,,,,,,,,,,,,,,463.9182529210084,464.36821593700734,464.40279610001016,None,i,1,0.9902224159886828,464.40279610001016,None,None,None,,,,,,,computer12/30,001,2021_Dec_30_1346,InfinityThesisTest5,2021.2.3,59.683624150420314,
,,,,,,,,,,,,,,,,,,,,,,,,,,,,,,,,,,,,,,,,,,,,,,,,,,,465.5012310230086,None,e,1.619489586999407,465.5012310230086,None,computer12/30,001,2021_Dec_30_1346,InfinityThesisTest5,2021.2.3,59.683624150420314,
