FastInstructions,practicetext,practicecorrect,Statement,Correct,Instrloop.thisRepN,Instrloop.thisTrialN,Instrloop.thisN,Instrloop.thisIndex,Practice.thisRepN,Practice.thisTrialN,Practice.thisN,Practice.thisIndex,FastLoop.thisRepN,FastLoop.thisTrialN,FastLoop.thisN,FastLoop.thisIndex,Instr1.started,Instr1.stopped,InstrResponse.keys,InstrResponse.rt,InstrResponse.started,InstrResponse.stopped,fixcross1.started,fixcross1.stopped,PracticeText.started,PracticeText.stopped,key_resp_2.keys,key_resp_2.corr,key_resp_2.rt,key_resp_2.started,key_resp_2.stopped,scaretone.started,scaretone.stopped,text.started,text.stopped,key_resp_3.keys,key_resp_3.rt,key_resp_3.started,key_resp_3.stopped,fixcross.started,fixcross.stopped,Fasttext.started,Fasttext.stopped,key_resp.keys,key_resp.corr,key_resp.rt,key_resp.started,key_resp.stopped,Timer.started,Timer.stopped,EndStudyText.started,EndStudyText.stopped,endstudykey.keys,endstudykey.rt,endstudykey.started,endstudykey.stopped,participant,session,date,expName,psychopyVersion,frameRate,
"You will be shown a total of 80 statements pertaining to mathematics, science, and social concepts. Your task is to determine whether each statement is true or false as quickly as possible without sacrificing accuracy. Some statements will be difficult and some will be easier.  We do not expect you to know the correct answer for all 80 statements.  Press F to Continue",,,,,0,0,0,0,,,,,,,,,17.886278848003712,None,f,1.3654308319964912,19.853132540010847,None,,,,,,,,,,,,,,,,,,,,,,,,,,,,,,,,,,,0,001,2022_Feb_08_1628,InfinityThesisTest5,2021.2.3,59.9898513980102,
"Each statement will appear on your screen for 5 seconds and you will have those 5 seconds to decide if it is true or false before the next statement appears. There will be a beep to inform you that you have 2 seconds remaining. If you do not respond, that answer will be considered incorrect and the task will move on to the next statement. Press F to continue",,,,,0,1,1,1,,,,,,,,,21.27104225900257,None,f,0.17494262699619867,23.254323776011006,None,,,,,,,,,,,,,,,,,,,,,,,,,,,,,,,,,,,0,001,2022_Feb_08_1628,InfinityThesisTest5,2021.2.3,59.9898513980102,
"If the statement is true, you will press the “F” key on your keyboard with your left pointer finger; if the statement is false, you will press the “J” key on your keyboard with your right pointer finger. Press F to continue",,,,,0,2,2,2,,,,,,,,,23.47063873001025,None,f,0.534947327003465,25.453012072001002,None,,,,,,,,,,,,,,,,,,,,,,,,,,,,,,,,,,,0,001,2022_Feb_08_1628,InfinityThesisTest5,2021.2.3,59.9898513980102,
"Prior to completing the study, you will complete 10 practice trials to familiarize yourself with the task. Your performance on these trials will determine your participation in the following study. Press 'F' to continue.",,,,,0,3,3,3,,,,,,,,,26.036810764009715,None,f,0.50324493800872,28.020652233011788,None,,,,,,,,,,,,,,,,,,,,,,,,,,,,,,,,,,,0,001,2022_Feb_08_1628,InfinityThesisTest5,2021.2.3,59.9898513980102,
"If the statement is true, press the “F” key on your keyboard with your left pointer finger; if the statement is false, press the “J” key on your keyboard with your right pointer finger. Press F to continue",,,,,0,4,4,4,,,,,,,,,28.570596607009065,None,f,0.3374937390035484,30.553355633004685,None,,,,,,,,,,,,,,,,,,,,,,,,,,,,,,,,,,,0,001,2022_Feb_08_1628,InfinityThesisTest5,2021.2.3,59.9898513980102,
,The Earth is a star,j,,,,,,,0,0,0,7,,,,,,,,,,,30.97073108200857,31.42124135501217,31.454733242004295,None,j,1,1.578894209000282,31.454733242004295,None,None,None,,,,,,,,,,,,,,,,,,,,,,,,0,001,2022_Feb_08_1628,InfinityThesisTest5,2021.2.3,59.9898513980102,
,A clock is used to tell time,f,,,,,,,0,1,1,3,,,,,,,,,,,33.07134942500852,33.52078057901235,33.55379729100969,None,f,1,0.9616603750037029,33.55379729100969,None,None,None,,,,,,,,,,,,,,,,,,,,,,,,0,001,2022_Feb_08_1628,InfinityThesisTest5,2021.2.3,59.9898513980102,
,Magenta is a color,f,,,,,,,0,2,2,2,,,,,,,,,,,34.55454448700766,35.00456127000507,35.037958617002005,None,f,1,0.7656240049982443,35.037958617002005,None,None,None,,,,,,,,,,,,,,,,,,,,,,,,0,001,2022_Feb_08_1628,InfinityThesisTest5,2021.2.3,59.9898513980102,
,A circle is a shape,f,,,,,,,0,3,3,0,,,,,,,,,,,35.82161804201314,36.271377907003625,36.30533606999961,None,f,1,1.0730083499947796,36.30533606999961,None,None,None,,,,,,,,,,,,,,,,,,,,,,,,0,001,2022_Feb_08_1628,InfinityThesisTest5,2021.2.3,59.9898513980102,
,Dinosaurs are extinct,f,,,,,,,0,4,4,1,,,,,,,,,,,37.4206880020065,37.87087090901332,37.887942236004164,None,f,1,0.7404231969994726,37.887942236004164,None,None,None,,,,,,,,,,,,,,,,,,,,,,,,0,001,2022_Feb_08_1628,InfinityThesisTest5,2021.2.3,59.9898513980102,
,Mississippi is a country,j,,,,,,,0,5,5,8,,,,,,,,,,,38.65496811400226,39.106094514005235,39.13866156300355,None,j,1,1.144766323006479,39.13866156300355,None,None,None,,,,,,,,,,,,,,,,,,,,,,,,0,001,2022_Feb_08_1628,InfinityThesisTest5,2021.2.3,59.9898513980102,
,Jupiter is the planet we live on,j,,,,,,,0,6,6,6,,,,,,,,,,,40.304977136009256,40.75499150399992,40.788627830013866,None,j,1,0.9324931579903932,40.788627830013866,None,None,None,,,,,,,,,,,,,,,,,,,,,,,,0,001,2022_Feb_08_1628,InfinityThesisTest5,2021.2.3,59.9898513980102,
,Humans cannot breathe water,f,,,,,,,0,7,7,4,,,,,,,,,,,41.75479688901396,42.204013393013156,42.23821557300107,None,j,0,0.7436742229911033,42.23821557300107,None,None,None,,,,,,,,,,,,,,,,,,,,,,,,0,001,2022_Feb_08_1628,InfinityThesisTest5,2021.2.3,59.9898513980102,
,Humans cannot eat food,j,,,,,,,0,8,8,9,,,,,,,,,,,43.021503430005396,43.47132959400187,43.504840649009566,None,j,1,1.4651334080117522,43.504840649009566,None,None,None,,,,,,,,,,,,,,,,,,,,,,,,0,001,2022_Feb_08_1628,InfinityThesisTest5,2021.2.3,59.9898513980102,
,A truck is an animal,j,,,,,,,0,9,9,5,,,,,,,,,,,44.9883298590139,45.43784041500476,45.47133920100168,None,j,1,0.8764895499916747,45.47133920100168,None,None,None,,,,,,,,,,,,,,,,,,,,,,,,0,001,2022_Feb_08_1628,InfinityThesisTest5,2021.2.3,59.9898513980102,
,,,,,,,,,,,,,,,,,,,,,,,,,,,,,,,,,,46.38800727001217,None,f,0.8133338710031239,49.37213252900983,None,,,,,,,,,,,,,,,,,,0,001,2022_Feb_08_1628,InfinityThesisTest5,2021.2.3,59.9898513980102,
,,,Mississippi is a country,j,,,,,,,,,0,0,0,147,,,,,,,,,,,,,,,,,,,,,,,,50.25659349300258,50.721822377003264,50.73879997400218,None,f,0,1.2356638130004285,50.73879997400218,None,None,None,,,,,,,0,001,2022_Feb_08_1628,InfinityThesisTest5,2021.2.3,59.9898513980102,
,,,A minute can be further divided,f,,,,,,,,,0,1,1,7,,,,,,,,,,,,,,,,,,,,,,,,52.00490003300365,52.455486118007684,52.48829843000567,None,f,1,0.1290072730043903,52.48829843000567,None,None,None,,,,,,,0,001,2022_Feb_08_1628,InfinityThesisTest5,2021.2.3,59.9898513980102,
,,,Oaks reproduce,f,,,,,,,,,0,2,2,95,,,,,,,,,,,,,,,,,,,,,,,,52.63862853200408,53.089188651007134,53.1218995800009,None,f,1,0.15941813099198043,53.1218995800009,None,None,None,,,,,,,0,001,2022_Feb_08_1628,InfinityThesisTest5,2021.2.3,59.9898513980102,
,,,Time has an end,j,,,,,,,,,0,3,3,42,,,,,,,,,,,,,,,,,,,,,,,,53.32159517600667,53.77211076600361,53.805155047011795,None,f,0,0.14927125599933788,53.805155047011795,None,None,None,,,,,,,0,001,2022_Feb_08_1628,InfinityThesisTest5,2021.2.3,59.9898513980102,
,,,Robots need nutrients,j,,,,,,,,,0,4,4,84,,,,,,,,,,,,,,,,,,,,,,,,53.98888644001272,54.438728011009516,54.471616923008696,None,f,0,0.15067605100921355,54.471616923008696,None,None,None,,,,,,,0,001,2022_Feb_08_1628,InfinityThesisTest5,2021.2.3,59.9898513980102,
,,,Space is endless,f,,,,,,,,,0,5,5,51,,,,,,,,,,,,,,,,,,,,,,,,54.65544051300094,55.105229308013804,55.139777816002606,None,f,1,0.14052800799254328,55.139777816002606,None,None,None,,,,,,,0,001,2022_Feb_08_1628,InfinityThesisTest5,2021.2.3,59.9898513980102,
,,,Numbers have an end,j,,,,,,,,,0,6,6,58,,,,,,,,,,,,,,,,,,,,,,,,55.306699927008594,55.756443198013585,55.79001157901075,None,f,0,0.12920437000866514,55.79001157901075,None,None,None,,,,,,,0,001,2022_Feb_08_1628,InfinityThesisTest5,2021.2.3,59.9898513980102,
,,,Numbers cannot be further divided,j,,,,,,,,,0,7,7,62,,,,,,,,,,,,,,,,,,,,,,,,55.93940633400052,56.388691053012735,56.42230749400915,None,f,0,0.12295963399810717,56.42230749400915,None,None,None,,,,,,,0,001,2022_Feb_08_1628,InfinityThesisTest5,2021.2.3,59.9898513980102,
,,,Spatial intervals can be further divided,f,,,,,,,,,0,8,8,31,,,,,,,,,,,,,,,,,,,,,,,,56.572398383999825,57.02304566701059,57.05667480100237,None,f,1,0.13049409000086598,57.05667480100237,None,None,None,,,,,,,0,001,2022_Feb_08_1628,InfinityThesisTest5,2021.2.3,59.9898513980102,
,,,An inch can go on forever,j,,,,,,,,,0,9,9,13,,,,,,,,,,,,,,,,,,,,,,,,57.20643622300122,57.6561331020057,57.689005583000835,None,f,0,0.1423355779988924,57.689005583000835,None,None,None,,,,,,,0,001,2022_Feb_08_1628,InfinityThesisTest5,2021.2.3,59.9898513980102,
,,,Shadows are composed of matter,j,,,,,,,,,0,10,10,89,,,,,,,,,,,,,,,,,,,,,,,,57.855934884006274,58.3063203440106,58.34020985700772,None,f,0,0.14491545700002462,58.34020985700772,None,None,None,,,,,,,0,001,2022_Feb_08_1628,InfinityThesisTest5,2021.2.3,59.9898513980102,
,,,Numbers are finite,j,,,,,,,,,0,11,11,56,,,,,,,,,,,,,,,,,,,,,,,,58.50603660401248,58.95657920400845,58.99055360100465,None,f,0,0.18857942600152455,58.99055360100465,None,None,None,,,,,,,0,001,2022_Feb_08_1628,InfinityThesisTest5,2021.2.3,59.9898513980102,
,,,Helicopters reproduce,j,,,,,,,,,0,12,12,86,,,,,,,,,,,,,,,,,,,,,,,,59.2063875770109,59.65596634600661,59.69042318701395,None,f,0,0.14661292599339504,59.69042318701395,None,None,None,,,,,,,0,001,2022_Feb_08_1628,InfinityThesisTest5,2021.2.3,59.9898513980102,
,,,There are ninty states in the United States,j,,,,,,,,,0,13,13,149,,,,,,,,,,,,,,,,,,,,,,,,59.856628232009825,60.30654589700862,60.34036411200941,None,f,0,0.21643765800399706,60.34036411200941,None,None,None,,,,,,,0,001,2022_Feb_08_1628,InfinityThesisTest5,2021.2.3,59.9898513980102,
,,,Space can be further divided,f,,,,,,,,,0,14,14,55,,,,,,,,,,,,,,,,,,,,,,,,60.59014839900192,61.03971269101021,61.07400573900668,None,f,1,0.5968544469942572,61.07400573900668,None,None,None,,,,,,,0,001,2022_Feb_08_1628,InfinityThesisTest5,2021.2.3,59.9898513980102,
,,,Concrete is composed of matter,f,,,,,,,,,0,15,15,79,,,,,,,,,,,,,,,,,,,,,,,,61.6902441590064,62.140684680009144,62.17364316000021,None,f,1,0.16914859200187493,62.17364316000021,None,None,None,,,,,,,0,001,2022_Feb_08_1628,InfinityThesisTest5,2021.2.3,59.9898513980102,
,,,A zebra is used to write,j,,,,,,,,,0,16,16,151,,,,,,,,,,,,,,,,,,,,,,,,62.37336624400632,62.82297763701354,62.857279020012356,None,f,0,0.1074194719985826,62.857279020012356,None,None,None,,,,,,,0,001,2022_Feb_08_1628,InfinityThesisTest5,2021.2.3,59.9898513980102,
,,,Words have a molecular structure,j,,,,,,,,,0,17,17,110,,,,,,,,,,,,,,,,,,,,,,,,62.99126698701002,63.44057858400629,63.473121088012704,None,f,0,0.5147026759950677,63.473121088012704,None,None,None,,,,,,,0,001,2022_Feb_08_1628,InfinityThesisTest5,2021.2.3,59.9898513980102,
,,,Dumbells are composed of matter,f,,,,,,,,,0,18,18,78,,,,,,,,,,,,,,,,,,,,,,,,64.00655612000264,64.4569152710028,64.49002811001264,None,f,1,0.09763986700272653,64.49002811001264,None,None,None,,,,,,,0,001,2022_Feb_08_1628,InfinityThesisTest5,2021.2.3,59.9898513980102,
,,,A triangle is a shape,f,,,,,,,,,0,19,19,114,,,,,,,,,,,,,,,,,,,,,,,,64.60747210400586,65.07315902400296,65.0893441340013,None,f,1,0.0883146590058459,65.0893441340013,None,None,None,,,,,,,0,001,2022_Feb_08_1628,InfinityThesisTest5,2021.2.3,59.9898513980102,
,,,Intervals of time can be endless,f,,,,,,,,,0,20,20,19,,,,,,,,,,,,,,,,,,,,,,,,65.20790283899987,65.65654121000262,65.69030169700272,None,f,1,0.08246612700168043,65.69030169700272,None,None,None,,,,,,,0,001,2022_Feb_08_1628,InfinityThesisTest5,2021.2.3,59.9898513980102,
,,,Numerical intervals can be endless,f,,,,,,,,,0,21,21,35,,,,,,,,,,,,,,,,,,,,,,,,65.78944380200119,66.24031213800481,66.27374530301313,None,f,1,0.06771168699197005,66.27374530301313,None,None,None,,,,,,,0,001,2022_Feb_08_1628,InfinityThesisTest5,2021.2.3,59.9898513980102,
,,,Numbers are infinite,f,,,,,,,,,0,22,22,57,,,,,,,,,,,,,,,,,,,,,,,,66.37395755700709,66.82410765100212,66.85726510701352,None,f,1,0.047268780996091664,66.85726510701352,None,None,None,,,,,,,0,001,2022_Feb_08_1628,InfinityThesisTest5,2021.2.3,59.9898513980102,
,,,A minute is infinite,j,,,,,,,,,0,23,23,1,,,,,,,,,,,,,,,,,,,,,,,,66.92314951600565,67.37381054200523,67.40656445200148,None,f,0,0.0649986490025185,67.40656445200148,None,None,None,,,,,,,0,001,2022_Feb_08_1628,InfinityThesisTest5,2021.2.3,59.9898513980102,
,,,A clock is used to tell time,f,,,,,,,,,0,24,24,122,,,,,,,,,,,,,,,,,,,,,,,,67.48964527600037,67.93997384200338,67.9735794980079,None,f,1,0.051783151997369714,67.9735794980079,None,None,None,,,,,,,0,001,2022_Feb_08_1628,InfinityThesisTest5,2021.2.3,59.9898513980102,
,,,Space is infinite,f,,,,,,,,,0,25,25,49,,,,,,,,,,,,,,,,,,,,,,,,68.05711252300534,68.507611619003,68.54070111300098,None,f,1,0.0186362700042082,68.54070111300098,None,None,None,,,,,,,0,001,2022_Feb_08_1628,InfinityThesisTest5,2021.2.3,59.9898513980102,
,,,Yellow is an animal,j,,,,,,,,,0,26,26,139,,,,,,,,,,,,,,,,,,,,,,,,68.59049055801006,69.03984798800957,69.07312912000634,None,f,0,0.040175639995140955,69.07312912000634,None,None,None,,,,,,,0,001,2022_Feb_08_1628,InfinityThesisTest5,2021.2.3,59.9898513980102,
,,,Bricks can be put in a container,f,,,,,,,,,0,27,27,77,,,,,,,,,,,,,,,,,,,,,,,,69.14120908500627,69.59076895900944,69.62309119300335,None,f,1,0.03739613700599875,69.62309119300335,None,None,None,,,,,,,0,001,2022_Feb_08_1628,InfinityThesisTest5,2021.2.3,59.9898513980102,
,,,A triangle is an animal,j,,,,,,,,,0,28,28,134,,,,,,,,,,,,,,,,,,,,,,,,69.6901291910035,70.14011100301286,70.17437528801383,None,f,0,0.029939250001916662,70.17437528801383,None,None,None,,,,,,,0,001,2022_Feb_08_1628,InfinityThesisTest5,2021.2.3,59.9898513980102,
,,,Numerical intervals cannot be further divided,f,,,,,,,,,0,29,29,38,,,,,,,,,,,,,,,,,,,,,,,,70.22377210001287,70.67413561001013,70.70684784500918,None,f,1,0.4973845750064356,70.70684784500918,None,None,None,,,,,,,0,001,2022_Feb_08_1628,InfinityThesisTest5,2021.2.3,59.9898513980102,
,,,A truck is an animal,j,,,,,,,,,0,30,30,144,,,,,,,,,,,,,,,,,,,,,,,,71.22306954501255,71.67415238301328,71.70734968000033,None,f,0,0.11677351100661326,71.70734968000033,None,None,None,,,,,,,0,001,2022_Feb_08_1628,InfinityThesisTest5,2021.2.3,59.9898513980102,
,,,Intervals of time can be further divided,f,,,,,,,,,0,31,31,23,,,,,,,,,,,,,,,,,,,,,,,,71.85785179800587,72.30803283200657,72.34035024601326,None,f,1,0.08878352999454364,72.34035024601326,None,None,None,,,,,,,0,001,2022_Feb_08_1628,InfinityThesisTest5,2021.2.3,59.9898513980102,
,,,Humans cannot eat food,j,,,,,,,,,0,32,32,141,,,,,,,,,,,,,,,,,,,,,,,,72.4566118010116,72.90668555900629,72.94036599500396,None,f,0,0.14792544901138172,72.94036599500396,None,None,None,,,,,,,0,001,2022_Feb_08_1628,InfinityThesisTest5,2021.2.3,59.9898513980102,
,,,Mushrooms reproduce,f,,,,,,,,,0,33,33,96,,,,,,,,,,,,,,,,,,,,,,,,73.12314284400782,73.57370259800518,73.60756847300217,None,f,1,0.24445760098751634,73.60756847300217,None,None,None,,,,,,,0,001,2022_Feb_08_1628,InfinityThesisTest5,2021.2.3,59.9898513980102,
,,,Turtles need nutrients,f,,,,,,,,,0,34,34,74,,,,,,,,,,,,,,,,,,,,,,,,73.873462063013,74.32325558400771,74.35735773600754,None,f,1,0.0746056690113619,74.35735773600754,None,None,None,,,,,,,0,001,2022_Feb_08_1628,InfinityThesisTest5,2021.2.3,59.9898513980102,
,,,A truck is a vehicle,f,,,,,,,,,0,35,35,124,,,,,,,,,,,,,,,,,,,,,,,,74.45730038800684,74.90694145701127,74.94029412700911,None,f,1,0.07269620599981863,74.94029412700911,None,None,None,,,,,,,0,001,2022_Feb_08_1628,InfinityThesisTest5,2021.2.3,59.9898513980102,
,,,Humans can breathe water,j,,,,,,,,,0,36,36,140,,,,,,,,,,,,,,,,,,,,,,,,75.04042283901072,75.49094115600747,75.52377386300941,None,f,0,0.3022213989897864,75.52377386300941,None,None,None,,,,,,,0,001,2022_Feb_08_1628,InfinityThesisTest5,2021.2.3,59.9898513980102,
,,,Dinosaurs are extinct,f,,,,,,,,,0,37,37,116,,,,,,,,,,,,,,,,,,,,,,,,75.85735337900405,76.30760101100896,76.34140750901133,None,f,1,0.1805485270015197,76.34140750901133,None,None,None,,,,,,,0,001,2022_Feb_08_1628,InfinityThesisTest5,2021.2.3,59.9898513980102,
,,,A minute can go on forever,j,,,,,,,,,0,38,38,5,,,,,,,,,,,,,,,,,,,,,,,,76.54118656100763,76.99107507900044,77.02414127500379,None,f,0,0.12685352700646035,77.02414127500379,None,None,None,,,,,,,0,001,2022_Feb_08_1628,InfinityThesisTest5,2021.2.3,59.9898513980102,
,,,Five can go on forever,j,,,,,,,,,0,39,39,69,,,,,,,,,,,,,,,,,,,,,,,,77.17404135801189,77.62505744901136,77.65773539501242,None,f,0,0.18819405400427058,77.65773539501242,None,None,None,,,,,,,0,001,2022_Feb_08_1628,InfinityThesisTest5,2021.2.3,59.9898513980102,
,,,Saliva has a molecular structure,f,,,,,,,,,0,40,40,101,,,,,,,,,,,,,,,,,,,,,,,,77.87392004900903,78.32499415200436,78.35782081600337,None,f,1,0.12707744099316187,78.35782081600337,None,None,None,,,,,,,0,001,2022_Feb_08_1628,InfinityThesisTest5,2021.2.3,59.9898513980102,
,,,Space is finite,j,,,,,,,,,0,41,41,48,,,,,,,,,,,,,,,,,,,,,,,,78.50795939200907,78.95712051801092,78.99035838800773,None,f,0,0.18466321099549532,78.99035838800773,None,None,None,,,,,,,0,001,2022_Feb_08_1628,InfinityThesisTest5,2021.2.3,59.9898513980102,
,,,Time cannot be further divided,j,,,,,,,,,0,42,42,46,,,,,,,,,,,,,,,,,,,,,,,,79.19153835200996,79.64046845900884,79.67428188900521,None,f,0,0.14449107999098487,79.67428188900521,None,None,None,,,,,,,0,001,2022_Feb_08_1628,InfinityThesisTest5,2021.2.3,59.9898513980102,
,,,Spatial intervals cannot go on forever,f,,,,,,,,,0,43,43,28,,,,,,,,,,,,,,,,,,,,,,,,79.85767059800855,80.3074937890051,80.34156222500314,None,f,1,0.026272286006133072,80.34156222500314,None,None,None,,,,,,,0,001,2022_Feb_08_1628,InfinityThesisTest5,2021.2.3,59.9898513980102,
,,,Time can go on forever,f,,,,,,,,,0,44,44,45,,,,,,,,,,,,,,,,,,,,,,,,80.39107620500727,80.84134535200428,80.87478936900152,None,f,1,0.009770221993676387,80.87478936900152,None,None,None,,,,,,,0,001,2022_Feb_08_1628,InfinityThesisTest5,2021.2.3,59.9898513980102,
,,,Orange is a color,f,,,,,,,,,0,45,45,118,,,,,,,,,,,,,,,,,,,,,,,,80.9076472500019,81.35816032500588,81.39024185600283,None,f,1,0.4413071610033512,81.39024185600283,None,None,None,,,,,,,0,001,2022_Feb_08_1628,InfinityThesisTest5,2021.2.3,59.9898513980102,
,,,This sentence is written in Spanish,j,,,,,,,,,0,46,46,132,,,,,,,,,,,,,,,,,,,,,,,,81.85786239500158,82.30832513900532,82.34166084200842,None,f,0,0.45294239300710615,82.34166084200842,None,None,None,,,,,,,0,001,2022_Feb_08_1628,InfinityThesisTest5,2021.2.3,59.9898513980102,
,,,Frogs reproduce,f,,,,,,,,,0,47,47,76,,,,,,,,,,,,,,,,,,,,,,,,82.82413322200591,83.27464897200116,83.3081482030102,None,f,1,0.12227435599197634,83.3081482030102,None,None,None,,,,,,,0,001,2022_Feb_08_1628,InfinityThesisTest5,2021.2.3,59.9898513980102,
,,,A circle is a flavor,j,,,,,,,,,0,48,48,135,,,,,,,,,,,,,,,,,,,,,,,,83.45835911000904,83.9085685720056,83.94145920500159,None,f,0,0.38314941099088173,83.94145920500159,None,None,None,,,,,,,0,001,2022_Feb_08_1628,InfinityThesisTest5,2021.2.3,59.9898513980102,
,,,The United States is a country,f,,,,,,,,,0,49,49,127,,,,,,,,,,,,,,,,,,,,,,,,84.35788370401133,84.80830995200085,84.84106463000353,None,f,1,0.20741491400985979,84.84106463000353,None,None,None,,,,,,,0,001,2022_Feb_08_1628,InfinityThesisTest5,2021.2.3,59.9898513980102,
,,,Space cannot go on forever,j,,,,,,,,,0,50,50,52,,,,,,,,,,,,,,,,,,,,,,,,85.07443211801001,85.52404419801314,85.55807049201394,None,f,0,0.1538684800034389,85.55807049201394,None,None,None,,,,,,,0,001,2022_Feb_08_1628,InfinityThesisTest5,2021.2.3,59.9898513980102,
,,,Spatial intervals can be finite,f,,,,,,,,,0,51,51,24,,,,,,,,,,,,,,,,,,,,,,,,85.74112550501013,86.19123116300034,86.22522795801342,None,f,1,0.1890871580108069,86.22522795801342,None,None,None,,,,,,,0,001,2022_Feb_08_1628,InfinityThesisTest5,2021.2.3,59.9898513980102,
,,,Humans can breathe water,j,,,,,,,,,0,52,52,150,,,,,,,,,,,,,,,,,,,,,,,,86.44201386500208,86.89119220500288,86.92501649601036,None,f,0,0.0912158860010095,86.92501649601036,None,None,None,,,,,,,0,001,2022_Feb_08_1628,InfinityThesisTest5,2021.2.3,59.9898513980102,
,,,Forks are alive,j,,,,,,,,,0,53,53,103,,,,,,,,,,,,,,,,,,,,,,,,87.04129356100748,87.49222139800258,87.52543706000142,None,f,0,0.1277402970008552,87.52543706000142,None,None,None,,,,,,,0,001,2022_Feb_08_1628,InfinityThesisTest5,2021.2.3,59.9898513980102,
,,,Magenta is a shape,j,,,,,,,,,0,54,54,137,,,,,,,,,,,,,,,,,,,,,,,,87.67454059699958,88.12539523500891,88.15868037800828,None,f,0,0.14261583299958147,88.15868037800828,None,None,None,,,,,,,0,001,2022_Feb_08_1628,InfinityThesisTest5,2021.2.3,59.9898513980102,
,,,Spatial intervals can go on forever,f,,,,,,,,,0,55,55,29,,,,,,,,,,,,,,,,,,,,,,,,88.32545510001364,88.77596271500806,88.80871869600378,None,f,1,0.16945639399637002,88.80871869600378,None,None,None,,,,,,,0,001,2022_Feb_08_1628,InfinityThesisTest5,2021.2.3,59.9898513980102,
,,,A pencil is used to write,f,,,,,,,,,0,56,56,131,,,,,,,,,,,,,,,,,,,,,,,,89.00830530100211,89.45910335700319,89.4915238310059,None,f,1,0.3576924139924813,89.4915238310059,None,None,None,,,,,,,0,001,2022_Feb_08_1628,InfinityThesisTest5,2021.2.3,59.9898513980102,
,,,A minute cannot be further divided,j,,,,,,,,,0,57,57,6,,,,,,,,,,,,,,,,,,,,,,,,89.87617341001169,90.32534863801266,90.35862030500721,None,f,0,0.13043197699880693,90.35862030500721,None,None,None,,,,,,,0,001,2022_Feb_08_1628,InfinityThesisTest5,2021.2.3,59.9898513980102,
,,,Spatial intervals  can have an end,f,,,,,,,,,0,58,58,26,,,,,,,,,,,,,,,,,,,,,,,,90.5082131930103,90.95904412100208,90.99165651301155,None,f,1,0.12831845300388522,90.99165651301155,None,None,None,,,,,,,0,001,2022_Feb_08_1628,InfinityThesisTest5,2021.2.3,59.9898513980102,
,,,A horse is used to tell time,j,,,,,,,,,0,59,59,142,,,,,,,,,,,,,,,,,,,,,,,,91.14173778600525,91.59231638400524,91.62536825500138,None,f,0,0.14468987101281527,91.62536825500138,None,None,None,,,,,,,0,001,2022_Feb_08_1628,InfinityThesisTest5,2021.2.3,59.9898513980102,
,,,Clocks are alive,j,,,,,,,,,0,60,60,82,,,,,,,,,,,,,,,,,,,,,,,,91.79129348100105,92.24197241700313,92.27546152600553,None,f,0,0.059354385011829436,92.27546152600553,None,None,None,,,,,,,0,001,2022_Feb_08_1628,InfinityThesisTest5,2021.2.3,59.9898513980102,
,,,Humans cannot breathe water,f,,,,,,,,,0,61,61,130,,,,,,,,,,,,,,,,,,,,,,,,92.35824823800067,92.80860715301242,92.84257728100056,None,f,1,0.018307528996956535,92.84257728100056,None,None,None,,,,,,,0,001,2022_Feb_08_1628,InfinityThesisTest5,2021.2.3,59.9898513980102,
,,,Bubbles can be put in a container,f,,,,,,,,,0,62,62,97,,,,,,,,,,,,,,,,,,,,,,,,92.89241952101293,93.34241661601118,93.37562887801323,None,f,1,0.12837951000255998,93.37562887801323,None,None,None,,,,,,,0,001,2022_Feb_08_1628,InfinityThesisTest5,2021.2.3,59.9898513980102,
,,,Five is infinite,j,,,,,,,,,0,63,63,65,,,,,,,,,,,,,,,,,,,,,,,,93.52532468600839,93.97534168499988,94.00933720500325,None,f,0,0.4755545450025238,94.00933720500325,None,None,None,,,,,,,0,001,2022_Feb_08_1628,InfinityThesisTest5,2021.2.3,59.9898513980102,
,,,An inch is infinite,j,,,,,,,,,0,64,64,9,,,,,,,,,,,,,,,,,,,,,,,,94.50917104700056,94.95919995600707,94.99163016500825,None,f,0,0.36138514400226995,94.99163016500825,None,None,None,,,,,,,0,001,2022_Feb_08_1628,InfinityThesisTest5,2021.2.3,59.9898513980102,
,,,Intervals of time can be finite,f,,,,,,,,,0,65,65,16,,,,,,,,,,,,,,,,,,,,,,,,95.3754295460094,95.82486700400477,95.85884296800941,None,f,1,0.1029344489943469,95.85884296800941,None,None,None,,,,,,,0,001,2022_Feb_08_1628,InfinityThesisTest5,2021.2.3,59.9898513980102,
,,,An inch can be further divided,f,,,,,,,,,0,66,66,15,,,,,,,,,,,,,,,,,,,,,,,,95.99247018400638,96.44240370500484,96.47628849800094,None,f,1,0.035424767003860325,96.47628849800094,None,None,None,,,,,,,0,001,2022_Feb_08_1628,InfinityThesisTest5,2021.2.3,59.9898513980102,
,,,Spatial intervals can be endless,f,,,,,,,,,0,67,67,27,,,,,,,,,,,,,,,,,,,,,,,,96.54343863700342,96.99200382101117,97.02578342400375,None,f,1,0.05594096999266185,97.02578342400375,None,None,None,,,,,,,0,001,2022_Feb_08_1628,InfinityThesisTest5,2021.2.3,59.9898513980102,
,,,Time is endless,f,,,,,,,,,0,68,68,43,,,,,,,,,,,,,,,,,,,,,,,,97.10918268200476,97.55903591201059,97.59326586899988,None,f,1,0.04948067599616479,97.59326586899988,None,None,None,,,,,,,0,001,2022_Feb_08_1628,InfinityThesisTest5,2021.2.3,59.9898513980102,
,,,A circle is a shape,f,,,,,,,,,0,69,69,115,,,,,,,,,,,,,,,,,,,,,,,,97.6760241400043,98.12560650600062,98.15990645901184,None,f,1,0.08172677000402473,98.15990645901184,None,None,None,,,,,,,0,001,2022_Feb_08_1628,InfinityThesisTest5,2021.2.3,59.9898513980102,
,,,A motorcycle is a person,j,,,,,,,,,0,70,70,143,,,,,,,,,,,,,,,,,,,,,,,,98.27509641900542,98.72597211200627,98.75862163200509,None,f,0,0.002976267001940869,98.75862163200509,None,None,None,,,,,,,0,001,2022_Feb_08_1628,InfinityThesisTest5,2021.2.3,59.9898513980102,
,,,Tables reproduce,j,,,,,,,,,0,71,71,105,,,,,,,,,,,,,,,,,,,,,,,,98.79219554000883,99.24246947400388,99.27517430100124,None,f,0,0.04143272301007528,99.27517430100124,None,None,None,,,,,,,0,001,2022_Feb_08_1628,InfinityThesisTest5,2021.2.3,59.9898513980102,
,,,Gravity has a molecular structure,j,,,,,,,,,0,72,72,91,,,,,,,,,,,,,,,,,,,,,,,,99.34338288901199,99.79200499400031,99.82585576000565,None,f,0,0.016692778997821733,99.82585576000565,None,None,None,,,,,,,0,001,2022_Feb_08_1628,InfinityThesisTest5,2021.2.3,59.9898513980102,
,,,Grass needs nutrients,f,,,,,,,,,0,73,73,94,,,,,,,,,,,,,,,,,,,,,,,,99.8759211590077,100.32554750400595,100.35953661800886,None,f,1,0.009822118998272344,100.35953661800886,None,None,None,,,,,,,0,001,2022_Feb_08_1628,InfinityThesisTest5,2021.2.3,59.9898513980102,
,,,There are fifty states in the United States,f,,,,,,,,,0,74,74,129,,,,,,,,,,,,,,,,,,,,,,,,100.39247653700295,100.84247141401283,100.8757252140058,None,f,1,0.2237351069925353,100.8757252140058,None,None,None,,,,,,,0,001,2022_Feb_08_1628,InfinityThesisTest5,2021.2.3,59.9898513980102,
,,,Numbers can go on forever,f,,,,,,,,,0,75,75,61,,,,,,,,,,,,,,,,,,,,,,,,101.12630409401027,101.57625544301118,101.60873010501382,None,f,1,0.11618964798981324,101.60873010501382,None,None,None,,,,,,,0,001,2022_Feb_08_1628,InfinityThesisTest5,2021.2.3,59.9898513980102,
,,,A minute is endless,j,,,,,,,,,0,76,76,3,,,,,,,,,,,,,,,,,,,,,,,,101.7423211500136,102.19230453101045,102.22589950601105,None,f,0,0.1454353379958775,102.22589950601105,None,None,None,,,,,,,0,001,2022_Feb_08_1628,InfinityThesisTest5,2021.2.3,59.9898513980102,
,,,Numerical intervals can be further divided,f,,,,,,,,,0,77,77,39,,,,,,,,,,,,,,,,,,,,,,,,102.39257154500228,102.84259138700145,102.87587259500287,None,f,1,0.1195292199990945,102.87587259500287,None,None,None,,,,,,,0,001,2022_Feb_08_1628,InfinityThesisTest5,2021.2.3,59.9898513980102,
,,,Intervals of time can go on forever,f,,,,,,,,,0,78,78,21,,,,,,,,,,,,,,,,,,,,,,,,103.02570771500177,103.47683561500162,103.50998490001075,None,f,1,0.1372291980078444,103.50998490001075,None,None,None,,,,,,,0,001,2022_Feb_08_1628,InfinityThesisTest5,2021.2.3,59.9898513980102,
,,,Music has a molecular structure,j,,,,,,,,,0,79,79,90,,,,,,,,,,,,,,,,,,,,,,,,103.6757500970125,104.1264984520094,104.1598456280044,None,f,0,0.20330921300046612,104.1598456280044,None,None,None,,,,,,,0,001,2022_Feb_08_1628,InfinityThesisTest5,2021.2.3,59.9898513980102,
,,,Frost is composed of matter,f,,,,,,,,,0,80,80,99,,,,,,,,,,,,,,,,,,,,,,,,104.39252318700892,104.84314160500071,104.87670639000135,None,f,1,0.18289213100797497,104.87670639000135,None,None,None,,,,,,,0,001,2022_Feb_08_1628,InfinityThesisTest5,2021.2.3,59.9898513980102,
,,,,,,,,,,,,,,,,,,,,,,,,,,,,,,,,,,,,,,,,,,,,,,,,,,,105.17651479000051,None,f,2.194370708995848,105.17651479000051,None,0,001,2022_Feb_08_1628,InfinityThesisTest5,2021.2.3,59.9898513980102,
