FastInstructions,Statement,Correct,Instrloop.thisRepN,Instrloop.thisTrialN,Instrloop.thisN,Instrloop.thisIndex,FastLoop.thisRepN,FastLoop.thisTrialN,FastLoop.thisN,FastLoop.thisIndex,Instr1.started,Instr1.stopped,InstrResponse.keys,InstrResponse.rt,InstrResponse.started,InstrResponse.stopped,fixcross.started,fixcross.stopped,Fasttext.started,Fasttext.stopped,key_resp.keys,key_resp.corr,key_resp.rt,key_resp.started,key_resp.stopped,Timer.started,Timer.stopped,EndStudyText.started,EndStudyText.stopped,endstudykey.keys,endstudykey.rt,endstudykey.started,endstudykey.stopped,participant,session,date,expName,psychopyVersion,frameRate,
"You will be shown a total of 160 statements pertaining to mathematics, science, and social concepts. Your task is to determine whether each statement is true or false as quickly as possible without sacrificing accuracy. Some statements will be difficult and some will be easier.  We do not expect you to know the correct answer for all 160 statements.  Press E to Continue",,,0,0,0,0,,,,,32.488267378066666,None,e,0.4506392969051376,34.47181737003848,None,,,,,,,,,,,,,,,,,,12221fast1,001,2021_Dec_02_1643,InfinityThesisTest5,2021.2.3,60.12194449780064,
"Each statement will appear on your screen for 5 seconds and you will have those 5 seconds to decide if it is true or false before the next statement appears. There will be a timer on your screen and a reminder when you have 2 seconds remaining. If you do not respond, that answer will be considered incorrect and the task will move on to the next statement. Press E to continue",,,0,1,1,1,,,,,34.98903095303103,None,e,0.04135641804896295,36.971002868027426,None,,,,,,,,,,,,,,,,,,12221fast1,001,2021_Dec_02_1643,InfinityThesisTest5,2021.2.3,60.12194449780064,
"If the statement is true, you will press the “E” key on your keyboard with your left pointer finger; if the statement is false, you will press the “I” key on your keyboard with your right pointer finger. Press E to continue",,,0,2,2,2,,,,,37.055424118065275,None,e,0.7937952090287581,39.038321166997775,None,,,,,,,,,,,,,,,,,,12221fast1,001,2021_Dec_02_1643,InfinityThesisTest5,2021.2.3,60.12194449780064,
,Pelicans are alive,e,,,,,0,0,0,73,,,,,,,39.954952650005,40.40437478502281,40.42182133102324,None,e,1,0.9453354219440371,40.42182133102324,None,None,None,,,,,,,12221fast1,001,2021_Dec_02_1643,InfinityThesisTest5,2021.2.3,60.12194449780064,
,A minute cannot go on forever,e,,,,,0,1,1,4,,,,,,,41.40518968505785,41.855381470988505,41.88857234001625,None,e,1,3.7254757669288665,41.88857234001625,None,44.88849437835161,45.08930432307534,,,,,,,12221fast1,001,2021_Dec_02_1643,InfinityThesisTest5,2021.2.3,60.12194449780064,
,Space cannot go on forever,i,,,,,0,2,2,52,,,,,,,45.65555062307976,46.10604639304802,46.13927293906454,None,e,0,1.4856231990270317,46.13927293906454,None,None,None,,,,,,,12221fast1,001,2021_Dec_02_1643,InfinityThesisTest5,2021.2.3,60.12194449780064,
,Spatial intervals can go on forever,i,,,,,0,3,3,29,,,,,,,47.65686795604415,48.105571903986856,48.139386849012226,None,i,1,2.2583484100177884,48.139386849012226,None,None,None,,,,,,,12221fast1,001,2021_Dec_02_1643,InfinityThesisTest5,2021.2.3,60.12194449780064,
,Mittens need nutrients,i,,,,,0,4,4,104,,,,,,,50.42314328998327,50.87256548402365,50.90588844008744,None,i,1,1.231794474995695,50.90588844008744,None,None,None,,,,,,,12221fast1,001,2021_Dec_02_1643,InfinityThesisTest5,2021.2.3,60.12194449780064,
,A triangle is an animal,i,,,,,0,5,5,134,,,,,,,52.15574160404503,52.60580187407322,52.63942677201703,None,e,0,1.0252788390498608,52.63942677201703,None,None,None,,,,,,,12221fast1,001,2021_Dec_02_1643,InfinityThesisTest5,2021.2.3,60.12194449780064,
,Jupiter is the planet we live on,i,,,,,0,6,6,145,,,,,,,53.69004911999218,54.13978919805959,54.17251326807309,None,i,1,3.5898392730159685,54.17251326807309,None,57.17330783330836,None,,,,,,,12221fast1,001,2021_Dec_02_1643,InfinityThesisTest5,2021.2.3,60.12194449780064,
,A motorcycle is a vehicle,e,,,,,0,7,7,123,,,,,,,57.790465875994414,58.23913188104052,58.27336929901503,None,e,1,1.1026588489767164,58.27336929901503,None,None,None,,,,,,,12221fast1,001,2021_Dec_02_1643,InfinityThesisTest5,2021.2.3,60.12194449780064,
,A rocketship is used to write,i,,,,,0,8,8,151,,,,,,,59.423356655053794,59.87356213305611,59.889729976071976,None,i,1,1.2821549299405888,59.889729976071976,None,None,None,,,,,,,12221fast1,001,2021_Dec_02_1643,InfinityThesisTest5,2021.2.3,60.12194449780064,
,Frost is composed of matter,e,,,,,0,9,9,99,,,,,,,61.205727272084914,61.65676847402938,61.68993290606886,None,e,1,1.5517342740204185,61.68993290606886,None,None,None,,,,,,,12221fast1,001,2021_Dec_02_1643,InfinityThesisTest5,2021.2.3,60.12194449780064,
,Tornadoes reproduce,i,,,,,0,10,10,85,,,,,,,63.2733836970292,63.724302369053476,63.75691082805861,None,i,1,1.3398012579418719,63.75691082805861,None,None,None,,,,,,,12221fast1,001,2021_Dec_02_1643,InfinityThesisTest5,2021.2.3,60.12194449780064,
,Intervals of time can be further divided,e,,,,,0,11,11,23,,,,,,,65.14073094702326,65.59001484198961,65.60678612207994,None,e,1,3.9575894640292972,65.60678612207994,None,68.60749841928482,None,,,,,,,12221fast1,001,2021_Dec_02_1643,InfinityThesisTest5,2021.2.3,60.12194449780064,
,Comets are alive,i,,,,,0,12,12,83,,,,,,,69.59047317807563,70.04030478000641,70.07435383403208,None,i,1,3.8527878739405423,70.07435383403208,None,73.07443932134193,None,,,,,,,12221fast1,001,2021_Dec_02_1643,InfinityThesisTest5,2021.2.3,60.12194449780064,
,Intervals of time are endless,i,,,,,0,13,13,19,,,,,,,73.95762779004872,74.40788176399656,74.44054908701219,None,i,1,1.6182673620060086,74.44054908701219,None,None,None,,,,,,,12221fast1,001,2021_Dec_02_1643,InfinityThesisTest5,2021.2.3,60.12194449780064,
,Hammers are alive,i,,,,,0,14,14,102,,,,,,,76.09020643809345,76.54080020007677,76.57373057608493,None,i,1,1.8359725800110027,76.57373057608493,None,None,None,,,,,,,12221fast1,001,2021_Dec_02_1643,InfinityThesisTest5,2021.2.3,60.12194449780064,
,Mushrooms reproduce,e,,,,,0,15,15,96,,,,,,,78.44096956006251,78.89099171909038,78.9244924960658,None,e,1,1.5910967759555206,78.9244924960658,None,None,None,,,,,,,12221fast1,001,2021_Dec_02_1643,InfinityThesisTest5,2021.2.3,60.12194449780064,
,Space is endless,e,,,,,0,16,16,51,,,,,,,80.54121279506944,80.99147810798604,81.02461652900092,None,e,1,2.2119006959255785,81.02461652900092,None,None,None,,,,,,,12221fast1,001,2021_Dec_02_1643,InfinityThesisTest5,2021.2.3,60.12194449780064,
,Spatial intervals are endless,i,,,,,0,17,17,27,,,,,,,83.2577002060134,83.70806603704114,83.74176582798827,None,i,1,1.622504135943018,83.74176582798827,None,None,None,,,,,,,12221fast1,001,2021_Dec_02_1643,InfinityThesisTest5,2021.2.3,60.12194449780064,
,Spatial intervals have an end,e,,,,,0,18,18,26,,,,,,,85.39230317506008,85.84078088600654,85.87459573405795,None,e,1,1.6305496519198641,85.87459573405795,None,None,None,,,,,,,12221fast1,001,2021_Dec_02_1643,InfinityThesisTest5,2021.2.3,60.12194449780064,
,Diamonds have a molecular structure,e,,,,,0,19,19,80,,,,,,,87.54133245104458,87.99216707702726,88.02529450703878,None,e,1,1.4228182879742235,88.02529450703878,None,None,None,,,,,,,12221fast1,001,2021_Dec_02_1643,InfinityThesisTest5,2021.2.3,60.12194449780064,
,Orange is a shape,i,,,,,0,20,20,138,,,,,,,89.47554417303763,89.92489452008158,89.95887141302228,None,i,1,1.6991397850215435,89.95887141302228,None,None,None,,,,,,,12221fast1,001,2021_Dec_02_1643,InfinityThesisTest5,2021.2.3,60.12194449780064,
,Time is endless,e,,,,,0,21,21,43,,,,,,,91.6918465050403,92.14216270006727,92.15879869798664,None,e,1,1.048058587941341,92.15879869798664,None,None,None,,,,,,,12221fast1,001,2021_Dec_02_1643,InfinityThesisTest5,2021.2.3,60.12194449780064,
,Music have a molecular structure,i,,,,,0,22,22,90,,,,,,,93.22489222802687,93.67585810599849,93.70813691103831,None,i,1,3.5134741719812155,93.70813691103831,None,96.70846601137892,None,,,,,,,12221fast1,001,2021_Dec_02_1643,InfinityThesisTest5,2021.2.3,60.12194449780064,
,Time can go on forever,e,,,,,0,23,23,45,,,,,,,97.24290847906377,97.69172669399995,97.72602442197967,None,e,1,1.1334425079403445,97.72602442197967,None,None,None,,,,,,,12221fast1,001,2021_Dec_02_1643,InfinityThesisTest5,2021.2.3,60.12194449780064,
,Shadows are composed of matter,i,,,,,0,24,24,89,,,,,,,98.89283969101962,99.34259324904997,99.37586612498853,None,i,1,2.217399199027568,99.37586612498853,None,None,None,,,,,,,12221fast1,001,2021_Dec_02_1643,InfinityThesisTest5,2021.2.3,60.12194449780064,
,Five cannot be further divided,i,,,,,0,25,25,70,,,,,,,101.64294068003073,102.09279844199773,102.12552488897927,None,i,1,2.1465816309209913,102.12552488897927,None,None,None,,,,,,,12221fast1,001,2021_Dec_02_1643,InfinityThesisTest5,2021.2.3,60.12194449780064,
,A triangle is a shape,e,,,,,0,26,26,114,,,,,,,104.29265900398605,104.74282459903043,104.77618909499142,None,e,1,1.1117965199518949,104.77618909499142,None,None,None,,,,,,,12221fast1,001,2021_Dec_02_1643,InfinityThesisTest5,2021.2.3,60.12194449780064,
,Stories are composed of matter,i,,,,,0,27,27,108,,,,,,,105.91032916202676,106.36028139898553,106.39285598904826,None,i,1,1.5240657459944487,106.39285598904826,None,None,None,,,,,,,12221fast1,001,2021_Dec_02_1643,InfinityThesisTest5,2021.2.3,60.12194449780064,
,Numerical intervals are endless,i,,,,,0,28,28,35,,,,,,,107.96051108802203,108.40962835599203,108.42610280809458,None,i,1,1.909717259928584,108.42610280809458,None,None,None,,,,,,,12221fast1,001,2021_Dec_02_1643,InfinityThesisTest5,2021.2.3,60.12194449780064,
,Five can be further divided,e,,,,,0,29,29,71,,,,,,,110.3599771260051,110.80986841802951,110.84354411403183,None,e,1,4.36401829496026,110.84354411403183,None,113.84525141438935,None,,,,,,,12221fast1,001,2021_Dec_02_1643,InfinityThesisTest5,2021.2.3,60.12194449780064,
,Songs can be put in a container,i,,,,,0,30,30,107,,,,,,,115.22617771604564,115.67690797604155,115.71053129702341,None,i,1,1.3277524040313438,115.71053129702341,None,None,None,,,,,,,12221fast1,001,2021_Dec_02_1643,InfinityThesisTest5,2021.2.3,60.12194449780064,
,A square is a shape,e,,,,,0,31,31,113,,,,,,,117.06068068603054,117.51068231998943,117.54321720602456,None,e,1,1.0970859379740432,117.54321720602456,None,None,None,,,,,,,12221fast1,001,2021_Dec_02_1643,InfinityThesisTest5,2021.2.3,60.12194449780064,
,Numerical intervals can be further divided,e,,,,,0,32,32,39,,,,,,,118.66014102404006,119.11078291106969,119.14463357208297,None,e,1,2.9989388870308176,119.14463357208297,None,122.14374886632432,None,,,,,,,12221fast1,001,2021_Dec_02_1643,InfinityThesisTest5,2021.2.3,60.12194449780064,
,Dinosaurs are not extinct,i,,,,,0,33,33,136,,,,,,,122.16127198399045,122.62798096507322,122.64422815607395,None,i,1,1.096784777007997,122.64422815607395,None,None,None,,,,,,,12221fast1,001,2021_Dec_02_1643,InfinityThesisTest5,2021.2.3,60.12194449780064,
,This sentence is written in English,e,,,,,0,34,34,112,,,,,,,123.76133015507367,124.22815104201436,124.24441609007772,None,e,1,0.8833458840381354,124.24441609007772,None,None,None,,,,,,,12221fast1,001,2021_Dec_02_1643,InfinityThesisTest5,2021.2.3,60.12194449780064,
,Space can be further divided,e,,,,,0,35,35,55,,,,,,,125.16047968599014,125.6114318080945,125.64450524700806,None,e,1,4.201932477997616,125.64450524700806,None,128.645148907369,None,,,,,,,12221fast1,001,2021_Dec_02_1643,InfinityThesisTest5,2021.2.3,60.12194449780064,
,Numerical intervals are infinite,i,,,,,0,36,36,33,,,,,,,129.87833713402506,130.32990170503035,130.36177861108445,None,e,0,0.9843072739895433,130.36177861108445,None,None,None,,,,,,,12221fast1,001,2021_Dec_02_1643,InfinityThesisTest5,2021.2.3,60.12194449780064,
,Number is endless,e,,,,,0,37,37,59,,,,,,,131.39477532403544,131.84411708207335,131.87811281706672,None,e,1,1.012109157978557,131.87811281706672,None,None,None,,,,,,,12221fast1,001,2021_Dec_02_1643,InfinityThesisTest5,2021.2.3,60.12194449780064,
,There are fifty states in the United States,e,,,,,0,38,38,129,,,,,,,132.9128269359935,133.3620936140651,133.3942193640396,None,e,1,0.9107589418999851,133.3942193640396,None,None,None,,,,,,,12221fast1,001,2021_Dec_02_1643,InfinityThesisTest5,2021.2.3,60.12194449780064,
,Color can be put in a container,i,,,,,0,39,39,87,,,,,,,134.34515906102024,134.79559257102665,134.81230580899864,None,i,1,1.1456397860310972,134.81230580899864,None,None,None,,,,,,,12221fast1,001,2021_Dec_02_1643,InfinityThesisTest5,2021.2.3,60.12194449780064,
,Humans cannot breathe water,e,,,,,0,40,40,130,,,,,,,135.97769320907537,136.42837306600995,136.4617203740636,None,e,1,1.461955129983835,136.4617203740636,None,None,None,,,,,,,12221fast1,001,2021_Dec_02_1643,InfinityThesisTest5,2021.2.3,60.12194449780064,
,The Earth is a star,i,,,,,0,41,41,146,,,,,,,137.94574339105748,138.39576277206652,138.42827142903116,None,i,1,1.3495253480505198,138.42827142903116,None,None,None,,,,,,,12221fast1,001,2021_Dec_02_1643,InfinityThesisTest5,2021.2.3,60.12194449780064,
,The president of the United States is Oprah,i,,,,,0,42,42,148,,,,,,,139.79590766504407,140.24552488408517,140.27888099907432,None,e,0,1.4026883710175753,140.27888099907432,None,None,None,,,,,,,12221fast1,001,2021_Dec_02_1643,InfinityThesisTest5,2021.2.3,60.12194449780064,
,A truck is an animal,i,,,,,0,43,43,144,,,,,,,141.7121370009845,142.16221610899083,142.1955194490729,None,i,1,3.273670410970226,142.1955194490729,None,145.1960485973861,None,,,,,,,12221fast1,001,2021_Dec_02_1643,InfinityThesisTest5,2021.2.3,60.12194449780064,
,Numerical intervals can go on forever,i,,,,,0,44,44,37,,,,,,,145.49587278498802,145.94616016803775,145.97956836305093,None,i,1,3.569529713015072,145.97956836305093,None,148.97975531236733,None,,,,,,,12221fast1,001,2021_Dec_02_1643,InfinityThesisTest5,2021.2.3,60.12194449780064,
,Turtles need nutrients,e,,,,,0,45,45,74,,,,,,,149.5787795720389,150.0297302780673,150.06282431806903,None,e,1,3.8193229269236326,150.06282431806903,None,153.06214668338652,None,,,,,,,12221fast1,001,2021_Dec_02_1643,InfinityThesisTest5,2021.2.3,60.12194449780064,
,The United States is a country,e,,,,,0,46,46,127,,,,,,,153.91300229600165,154.3630914540263,154.3970089519862,None,e,1,1.0530655949842185,154.3970089519862,None,None,None,,,,,,,12221fast1,001,2021_Dec_02_1643,InfinityThesisTest5,2021.2.3,60.12194449780064,
,Echoes is composed of matter,i,,,,,0,47,47,88,,,,,,,155.48040832707193,155.93025496404152,155.96347293199506,None,i,1,2.6272227599984035,155.96347293199506,None,None,None,,,,,,,12221fast1,001,2021_Dec_02_1643,InfinityThesisTest5,2021.2.3,60.12194449780064,
,Magenta is a color,e,,,,,0,48,48,117,,,,,,,158.61355644103605,159.06342754000798,159.0962576030288,None,e,1,0.9003034010529518,159.0962576030288,None,None,None,,,,,,,12221fast1,001,2021_Dec_02_1643,InfinityThesisTest5,2021.2.3,60.12194449780064,
,Number is finite,i,,,,,0,49,49,56,,,,,,,160.0291903250618,160.48019689507782,160.51443443703465,None,i,1,0.9791506739566103,160.51443443703465,None,None,None,,,,,,,12221fast1,001,2021_Dec_02_1643,InfinityThesisTest5,2021.2.3,60.12194449780064,
,Time cannot be further divided,i,,,,,0,50,50,46,,,,,,,161.51407300308347,161.96341971307993,161.99685038498137,None,i,1,1.852504608919844,161.99685038498137,None,None,None,,,,,,,12221fast1,001,2021_Dec_02_1643,InfinityThesisTest5,2021.2.3,60.12194449780064,
,A minute is finite,e,,,,,0,51,51,0,,,,,,,163.88034840801265,164.33013133902568,164.36322562303394,None,i,0,2.106977922958322,164.36322562303394,None,None,None,,,,,,,12221fast1,001,2021_Dec_02_1643,InfinityThesisTest5,2021.2.3,60.12194449780064,
,Yellow is a color,e,,,,,0,52,52,119,,,,,,,166.51456517598126,166.9645667260047,166.9972004670417,None,e,1,0.9001759870443493,166.9972004670417,None,None,None,,,,,,,12221fast1,001,2021_Dec_02_1643,InfinityThesisTest5,2021.2.3,60.12194449780064,
,Magenta is a shape,i,,,,,0,53,53,137,,,,,,,167.91344629100058,168.36395979102235,168.39761939109303,None,i,1,2.3003301849821582,168.39761939109303,None,None,None,,,,,,,12221fast1,001,2021_Dec_02_1643,InfinityThesisTest5,2021.2.3,60.12194449780064,
,An inch is endless,i,,,,,0,54,54,11,,,,,,,170.7302044479875,171.17999759700615,171.21345196501352,None,i,1,1.3783410930773243,171.21345196501352,None,None,None,,,,,,,12221fast1,001,2021_Dec_02_1643,InfinityThesisTest5,2021.2.3,60.12194449780064,
,Five is infinite,i,,,,,0,55,55,65,,,,,,,172.61420453700703,173.06464001198765,173.09789949201513,None,i,1,1.2652382119558752,173.09789949201513,None,None,None,,,,,,,12221fast1,001,2021_Dec_02_1643,InfinityThesisTest5,2021.2.3,60.12194449780064,
,Humans cannot eat food,i,,,,,0,56,56,141,,,,,,,174.3805919290753,174.8315894540865,174.86464957904536,None,i,1,1.1890951140085235,174.86464957904536,None,None,None,,,,,,,12221fast1,001,2021_Dec_02_1643,InfinityThesisTest5,2021.2.3,60.12194449780064,
,Tables reproduce,i,,,,,0,57,57,105,,,,,,,176.08121690002736,176.53133343707304,176.56461084005423,None,i,1,1.0740410439902917,176.56461084005423,None,None,None,,,,,,,12221fast1,001,2021_Dec_02_1643,InfinityThesisTest5,2021.2.3,60.12194449780064,
,A clock is used to tell time,e,,,,,0,58,58,122,,,,,,,177.66461044200696,178.11467441997956,178.1486838470446,None,e,1,1.0558716560481116,178.1486838470446,None,None,None,,,,,,,12221fast1,001,2021_Dec_02_1643,InfinityThesisTest5,2021.2.3,60.12194449780064,
,Five cannot go on forever,e,,,,,0,59,59,68,,,,,,,179.23075559502468,179.68155559606384,179.7150456950767,None,i,0,1.1733071929775178,179.7150456950767,None,None,None,,,,,,,12221fast1,001,2021_Dec_02_1643,InfinityThesisTest5,2021.2.3,60.12194449780064,
,The United States has a president,e,,,,,0,60,60,128,,,,,,,180.91465690499172,181.36523320199922,181.39771054300945,None,e,1,2.2473963840166107,181.39771054300945,None,None,None,,,,,,,12221fast1,001,2021_Dec_02_1643,InfinityThesisTest5,2021.2.3,60.12194449780064,
,An inch can be further divided,e,,,,,0,61,61,15,,,,,,,183.66503733105492,184.11527612106875,184.14888182503637,None,e,1,1.9191096699796617,184.14888182503637,None,None,None,,,,,,,12221fast1,001,2021_Dec_02_1643,InfinityThesisTest5,2021.2.3,60.12194449780064,
,A minute is endless,i,,,,,0,62,62,3,,,,,,,186.0987234780332,186.54893226898275,186.58186075801495,None,i,1,1.8450151750585064,186.58186075801495,None,None,None,,,,,,,12221fast1,001,2021_Dec_02_1643,InfinityThesisTest5,2021.2.3,60.12194449780064,
,Concrete is composed of matter,e,,,,,0,63,63,79,,,,,,,188.4483131590532,188.8985290080309,188.93175248999614,None,e,1,2.618079372914508,188.93175248999614,None,None,None,,,,,,,12221fast1,001,2021_Dec_02_1643,InfinityThesisTest5,2021.2.3,60.12194449780064,
,Words have a molecular structure,i,,,,,0,64,64,110,,,,,,,191.56598885101266,192.01533544203267,192.0487557790475,None,i,1,3.19589992496185,192.0487557790475,None,195.0495268303668,None,,,,,,,12221fast1,001,2021_Dec_02_1643,InfinityThesisTest5,2021.2.3,60.12194449780064,
,A minute can go on forever,i,,,,,0,65,65,5,,,,,,,195.26516169006936,195.71624613401946,195.75012231408618,None,i,1,4.356113839079626,195.75012231408618,None,198.75092540138866,None,,,,,,,12221fast1,001,2021_Dec_02_1643,InfinityThesisTest5,2021.2.3,60.12194449780064,
,Dumbells are composed of matter,e,,,,,0,66,66,78,,,,,,,200.13317601801828,200.5829767700052,200.6171054689912,None,e,1,1.0931022990262136,200.6171054689912,None,None,None,,,,,,,12221fast1,001,2021_Dec_02_1643,InfinityThesisTest5,2021.2.3,60.12194449780064,
,Intervals of time are infinite,i,,,,,0,67,67,17,,,,,,,201.73271285300143,202.18297780002467,202.21691240405198,None,i,1,1.3290723429527134,202.21691240405198,None,None,None,,,,,,,12221fast1,001,2021_Dec_02_1643,InfinityThesisTest5,2021.2.3,60.12194449780064,
,Forks are alive,i,,,,,0,68,68,103,,,,,,,203.56642681499943,204.015902929008,204.04920651903376,None,i,1,1.0467044269898906,204.04920651903376,None,None,None,,,,,,,12221fast1,001,2021_Dec_02_1643,InfinityThesisTest5,2021.2.3,60.12194449780064,
,A square is a color,i,,,,,0,69,69,133,,,,,,,205.11595681705512,205.56680992804468,205.59889026207384,None,i,1,1.129997428972274,205.59889026207384,None,None,None,,,,,,,12221fast1,001,2021_Dec_02_1643,InfinityThesisTest5,2021.2.3,60.12194449780064,
,Oaks reproduce,e,,,,,0,70,70,95,,,,,,,206.7491940209875,207.19920987600926,207.23377829801757,None,e,1,3.4238237850368023,207.23377829801757,None,210.23373538539744,None,,,,,,,12221fast1,001,2021_Dec_02_1643,InfinityThesisTest5,2021.2.3,60.12194449780064,
,Spatial intervals can be further divided,e,,,,,0,71,71,31,,,,,,,210.68366116203833,211.134440978989,211.16699568205513,None,i,0,1.1814641410019249,211.16699568205513,None,None,None,,,,,,,12221fast1,001,2021_Dec_02_1643,InfinityThesisTest5,2021.2.3,60.12194449780064,
,Time is infinite,e,,,,,0,72,72,41,,,,,,,212.36660866509192,212.81682334502693,212.85162249405403,None,e,1,1.0746177770197392,212.85162249405403,None,None,None,,,,,,,12221fast1,001,2021_Dec_02_1643,InfinityThesisTest5,2021.2.3,60.12194449780064,
,Bricks can be put in a container,e,,,,,0,73,73,77,,,,,,,213.95089512201957,214.39988066605292,214.43354758701753,None,e,1,2.472680037957616,214.43354758701753,None,None,None,,,,,,,12221fast1,001,2021_Dec_02_1643,InfinityThesisTest5,2021.2.3,60.12194449780064,
,Pollen has a molecular structure,e,,,,,0,74,74,100,,,,,,,216.93374248500913,217.38418492407072,217.41762153699528,None,e,1,2.7574069160036743,217.41762153699528,None,None,None,,,,,,,12221fast1,001,2021_Dec_02_1643,InfinityThesisTest5,2021.2.3,60.12194449780064,
,A circle is a flavor,i,,,,,0,75,75,135,,,,,,,220.2009927390609,220.6518918160582,220.68414085102268,None,i,1,1.1076019199099392,220.68414085102268,None,None,None,,,,,,,12221fast1,001,2021_Dec_02_1643,InfinityThesisTest5,2021.2.3,60.12194449780064,
,Humans can breathe water,i,,,,,0,76,76,150,,,,,,,221.81696536799427,222.2675922960043,222.3017819779925,None,i,1,1.960997169953771,222.3017819779925,None,None,None,,,,,,,12221fast1,001,2021_Dec_02_1643,InfinityThesisTest5,2021.2.3,60.12194449780064,
,Stones reproduce,i,,,,,0,77,77,106,,,,,,,224.28407561802305,224.73489984998014,224.76874005503487,None,i,1,3.216693621012382,224.76874005503487,None,227.76772956135682,None,,,,,,,12221fast1,001,2021_Dec_02_1643,InfinityThesisTest5,2021.2.3,60.12194449780064,
,Tigers reproduce,e,,,,,0,78,78,75,,,,,,,228.0180830960162,228.46751263504848,228.50100299401674,None,e,1,0.872436824021861,228.50100299401674,None,None,None,,,,,,,12221fast1,001,2021_Dec_02_1643,InfinityThesisTest5,2021.2.3,60.12194449780064,
,Number can be further divided,e,,,,,0,79,79,63,,,,,,,229.40203759004362,229.8517288940493,229.8844912700588,None,e,1,2.7399321949342266,229.8844912700588,None,None,None,,,,,,,12221fast1,001,2021_Dec_02_1643,InfinityThesisTest5,2021.2.3,60.12194449780064,
,A truck is a vehicle,e,,,,,0,80,80,124,,,,,,,232.65219732699916,233.10234668804333,233.13500666501932,None,e,1,2.594085298012942,233.13500666501932,None,None,None,,,,,,,12221fast1,001,2021_Dec_02_1643,InfinityThesisTest5,2021.2.3,60.12194449780064,
,Space has an end,i,,,,,0,81,81,50,,,,,,,235.75153387302998,236.201293671038,236.23456277209334,None,i,1,1.5203538939822465,236.23456277209334,None,None,None,,,,,,,12221fast1,001,2021_Dec_02_1643,InfinityThesisTest5,2021.2.3,60.12194449780064,
,An inch can go on forever,i,,,,,0,82,82,13,,,,,,,237.78564833605196,238.23548495105933,238.26843650301453,None,i,1,1.4982082330388948,238.26843650301453,None,None,None,,,,,,,12221fast1,001,2021_Dec_02_1643,InfinityThesisTest5,2021.2.3,60.12194449780064,
,Dinosaurs are extinct,e,,,,,0,83,83,116,,,,,,,239.78547167300712,240.23560337198433,240.26920860505197,None,i,0,1.4275705280015245,240.26920860505197,None,None,None,,,,,,,12221fast1,001,2021_Dec_02_1643,InfinityThesisTest5,2021.2.3,60.12194449780064,
,A minute has an end,e,,,,,0,84,84,2,,,,,,,241.71924898400903,242.1696434430778,242.2015097780386,None,e,1,1.8540017789928243,242.2015097780386,None,None,None,,,,,,,12221fast1,001,2021_Dec_02_1643,InfinityThesisTest5,2021.2.3,60.12194449780064,
,Mississippi is a country,i,,,,,0,85,85,147,,,,,,,244.08534349198453,244.53648800204974,244.56955335999373,None,i,1,1.140732738072984,244.56955335999373,None,None,None,,,,,,,12221fast1,001,2021_Dec_02_1643,InfinityThesisTest5,2021.2.3,60.12194449780064,
,Intervals of time cannot be further divided,i,,,,,0,86,86,22,,,,,,,245.73601838201284,246.18575194606092,246.2185590810841,251.21911385201383,None,0,,246.2185590810841,None,249.22015331829897,None,,,,,,,12221fast1,001,2021_Dec_02_1643,InfinityThesisTest5,2021.2.3,60.12194449780064,
,Foam are composed of matter,e,,,,,0,87,87,98,,,,,,,251.72051550506148,252.16967420303263,252.20331742998678,257.20307888207026,None,0,,252.20331742998678,251.72051550506148,255.20363509228918,None,,,,,,,12221fast1,001,2021_Dec_02_1643,InfinityThesisTest5,2021.2.3,60.12194449780064,
,A motorcycle is a person,i,,,,,0,88,88,143,,,,,,,257.7034462870797,258.1527217280818,258.1859606280923,None,i,1,1.2133505910169333,258.1859606280923,257.7034462870797,None,None,,,,,,,12221fast1,001,2021_Dec_02_1643,InfinityThesisTest5,2021.2.3,60.12194449780064,
,Grass needs nutrients,e,,,,,0,89,89,94,,,,,,,259.4213030009996,259.88726100104395,259.9034588030772,264.90349684201647,None,0,,259.9034588030772,None,262.9040696213953,None,,,,,,,12221fast1,001,2021_Dec_02_1643,InfinityThesisTest5,2021.2.3,60.12194449780064,
,The Earth is a planet,e,,,,,0,90,90,126,,,,,,,265.4037702990463,265.8536568140844,265.88742914109025,None,e,1,3.490223063970916,265.88742914109025,265.4037702990463,268.88744186428374,None,,,,,,,12221fast1,001,2021_Dec_02_1643,InfinityThesisTest5,2021.2.3,60.12194449780064,
,Five is finite,e,,,,,0,91,91,64,,,,,,,269.42060223105364,269.870219458011,269.88697990903165,274.8872926130425,None,0,,269.88697990903165,None,272.88741229828446,None,,,,,,,12221fast1,001,2021_Dec_02_1643,InfinityThesisTest5,2021.2.3,60.12194449780064,
,Five is endless,i,,,,,0,92,92,67,,,,,,,275.38849093799945,275.85438800102565,275.8709261370823,None,i,1,1.5031534869922325,275.8709261370823,275.38849093799945,None,None,,,,,,,12221fast1,001,2021_Dec_02_1643,InfinityThesisTest5,2021.2.3,60.12194449780064,
,Intervals of time can go on forever,i,,,,,0,93,93,21,,,,,,,277.40469873300754,277.8552183189895,277.88925871800166,282.8893193430267,None,0,,277.88925871800166,None,280.88775494932196,None,,,,,,,12221fast1,001,2021_Dec_02_1643,InfinityThesisTest5,2021.2.3,60.12194449780064,
,Intervals of time have an end,e,,,,,0,94,94,18,,,,,,,283.38828104001004,283.837935233023,283.87085717206355,None,e,1,1.9446536470204592,283.87085717206355,283.38828104001004,None,None,,,,,,,12221fast1,001,2021_Dec_02_1643,InfinityThesisTest5,2021.2.3,60.12194449780064,
,Humans can eat food,e,,,,,0,95,95,121,,,,,,,285.8553113450762,286.30475307500456,286.33838519104756,None,e,1,0.9554461240768433,286.33838519104756,None,None,None,,,,,,,12221fast1,001,2021_Dec_02_1643,InfinityThesisTest5,2021.2.3,60.12194449780064,
,A circle is a shape,e,,,,,0,96,96,115,,,,,,,287.3389995320467,287.7884663520381,287.8225782380905,None,e,1,1.40613758796826,287.8225782380905,None,None,None,,,,,,,12221fast1,001,2021_Dec_02_1643,InfinityThesisTest5,2021.2.3,60.12194449780064,
,An inch cannot go on forever,e,,,,,0,97,97,12,,,,,,,289.27135893004015,289.72257380001247,289.7556058500195,None,i,0,1.7790259210160002,289.7556058500195,None,None,None,,,,,,,12221fast1,001,2021_Dec_02_1643,InfinityThesisTest5,2021.2.3,60.12194449780064,
,Robots need nutrients,i,,,,,0,98,98,84,,,,,,,291.55708971607964,292.0217911070213,292.0388363180682,None,i,1,2.008698786026798,292.0388363180682,None,None,None,,,,,,,12221fast1,001,2021_Dec_02_1643,InfinityThesisTest5,2021.2.3,60.12194449780064,
,A minute can be further divided,e,,,,,0,99,99,7,,,,,,,294.0729038080899,294.5219320569886,294.55489451100584,None,e,1,1.5177601700415835,294.55489451100584,None,None,None,,,,,,,12221fast1,001,2021_Dec_02_1643,InfinityThesisTest5,2021.2.3,60.12194449780064,
,Numerical intervals cannot be further divided,i,,,,,0,100,100,38,,,,,,,296.1054502360057,296.5565983580891,296.57318410801236,None,i,1,4.639360347064212,296.57318410801236,None,299.58954663230105,None,,,,,,,12221fast1,001,2021_Dec_02_1643,InfinityThesisTest5,2021.2.3,60.12194449780064,
,Bubbles can be put in a container,e,,,,,0,101,101,97,,,,,,,301.2402514120331,301.68977489403915,301.7224866140168,None,e,1,1.7962022830033675,301.7224866140168,None,None,None,,,,,,,12221fast1,001,2021_Dec_02_1643,InfinityThesisTest5,2021.2.3,60.12194449780064,
,An inch is infinite,i,,,,,0,102,102,9,,,,,,,303.53969080001116,303.98960542003624,304.02274844702333,None,i,1,2.1887441930593923,304.02274844702333,None,None,None,,,,,,,12221fast1,001,2021_Dec_02_1643,InfinityThesisTest5,2021.2.3,60.12194449780064,
,A minute cannot be further divided,i,,,,,0,103,103,6,,,,,,,306.2561290310696,306.7061115980614,306.7232232800452,None,i,1,4.278658366994932,306.7232232800452,None,309.7237169503234,None,,,,,,,12221fast1,001,2021_Dec_02_1643,InfinityThesisTest5,2021.2.3,60.12194449780064,
,Time is finite,i,,,,,0,104,104,40,,,,,,,311.0234899680363,311.4737259320682,311.5079065830214,None,i,1,2.4110408899141476,311.5079065830214,None,None,None,,,,,,,12221fast1,001,2021_Dec_02_1643,InfinityThesisTest5,2021.2.3,60.12194449780064,
,Saliva has a molecular structure,e,,,,,0,105,105,101,,,,,,,313.95809189707506,314.4069353240775,314.44053799600806,None,e,1,1.3844055570662022,314.44053799600806,None,None,None,,,,,,,12221fast1,001,2021_Dec_02_1643,InfinityThesisTest5,2021.2.3,60.12194449780064,
,Spatial intervals are finite,e,,,,,0,106,106,24,,,,,,,315.8573241640115,316.3072293860605,316.339931769995,None,e,1,3.5356114599853754,316.339931769995,None,319.3411311373813,None,,,,,,,12221fast1,001,2021_Dec_02_1643,InfinityThesisTest5,2021.2.3,60.12194449780064,
,Number cannot be further divided,i,,,,,0,107,107,62,,,,,,,319.9074733820744,320.3581969420193,320.39075153309386,325.39211146498565,None,0,,320.39075153309386,None,323.39125658634583,None,,,,,,,12221fast1,001,2021_Dec_02_1643,InfinityThesisTest5,2021.2.3,60.12194449780064,
,Space is infinite,e,,,,,0,108,108,49,,,,,,,325.8914868410211,326.3414629410254,326.375087611028,None,e,1,1.7075921930372715,326.375087611028,325.8914868410211,None,None,,,,,,,12221fast1,001,2021_Dec_02_1643,InfinityThesisTest5,2021.2.3,60.12194449780064,
,Numerical intervals have an end,e,,,,,0,109,109,34,,,,,,,328.10814021807164,328.5579022290185,328.59149039001204,None,i,0,3.065427473979071,328.59149039001204,None,331.5915418552933,None,,,,,,,12221fast1,001,2021_Dec_02_1643,InfinityThesisTest5,2021.2.3,60.12194449780064,
,A horse is used to tell time,i,,,,,0,110,110,142,,,,,,,331.69248930807225,332.15816626301967,332.1747792820679,None,i,1,1.8097973329713568,332.1747792820679,None,None,None,,,,,,,12221fast1,001,2021_Dec_02_1643,InfinityThesisTest5,2021.2.3,60.12194449780064,
,Rocks have a molecular structure,e,,,,,0,111,111,81,,,,,,,334.0086004770128,334.45854698098265,334.4918865270447,None,e,1,2.5005619240691885,334.4918865270447,None,None,None,,,,,,,12221fast1,001,2021_Dec_02_1643,InfinityThesisTest5,2021.2.3,60.12194449780064,
,Dreams have a molecular structure,i,,,,,0,112,112,111,,,,,,,337.0251329940511,337.4758638549829,337.50883647508454,None,i,1,0.997629267978482,337.50883647508454,None,None,None,,,,,,,12221fast1,001,2021_Dec_02_1643,InfinityThesisTest5,2021.2.3,60.12194449780064,
,Intervals of time cannot go on forever,e,,,,,0,113,113,20,,,,,,,338.5257729990408,338.9752509460086,339.00852928007953,344.00946099997964,i,0,5.030555710894987,339.00852928007953,None,342.00943298130295,None,,,,,,,12221fast1,001,2021_Dec_02_1643,InfinityThesisTest5,2021.2.3,60.12194449780064,
,Five has an end,e,,,,,0,114,114,66,,,,,,,344.05960762605537,344.51031826098915,344.5430166639853,None,e,1,1.3586761970072985,344.5430166639853,None,None,None,,,,,,,12221fast1,001,2021_Dec_02_1643,InfinityThesisTest5,2021.2.3,60.12194449780064,
,Intervals of time are finite,e,,,,,0,115,115,16,,,,,,,345.9256172630703,346.3763394700363,346.40933064802084,None,i,0,2.865485414979048,346.40933064802084,None,None,None,,,,,,,12221fast1,001,2021_Dec_02_1643,InfinityThesisTest5,2021.2.3,60.12194449780064,
,Spatial intervals are infinite,i,,,,,0,116,116,25,,,,,,,349.31050923105795,349.7595369280316,349.77653220098,None,i,1,1.791678658919409,349.77653220098,None,None,None,,,,,,,12221fast1,001,2021_Dec_02_1643,InfinityThesisTest5,2021.2.3,60.12194449780064,
,Space is finite,i,,,,,0,117,117,48,,,,,,,351.5932501980569,352.0440410140436,352.0769619389903,None,i,1,1.7240085899829865,352.0769619389903,None,None,None,,,,,,,12221fast1,001,2021_Dec_02_1643,InfinityThesisTest5,2021.2.3,60.12194449780064,
,Time can be further divided,e,,,,,0,118,118,47,,,,,,,353.83100247604307,354.29297194699757,354.31023985508364,None,e,1,2.023554263985716,354.31023985508364,None,None,None,,,,,,,12221fast1,001,2021_Dec_02_1643,InfinityThesisTest5,2021.2.3,60.12194449780064,
,A minute is infinite,i,,,,,0,119,119,1,,,,,,,356.35953498003073,356.8104278900428,356.84386010398157,None,i,1,3.8046211750479415,356.84386010398157,None,359.84504766929894,None,,,,,,,12221fast1,001,2021_Dec_02_1643,InfinityThesisTest5,2021.2.3,60.12194449780064,
,Numerical intervals are finite,e,,,,,0,120,120,32,,,,,,,360.67777625704184,361.1274240950588,361.16147399903275,None,i,0,4.02870978997089,361.16147399903275,None,364.16089274133554,None,,,,,,,12221fast1,001,2021_Dec_02_1643,InfinityThesisTest5,2021.2.3,60.12194449780064,
,Orange is a color,e,,,,,0,121,121,118,,,,,,,365.2106916240882,365.6610898440704,365.6948508810019,None,e,1,2.832947082002647,365.6948508810019,None,None,None,,,,,,,12221fast1,001,2021_Dec_02_1643,InfinityThesisTest5,2021.2.3,60.12194449780064,
,Number is infinite,e,,,,,0,122,122,57,,,,,,,368.560996712069,369.01031839405186,369.04371107008774,None,e,1,1.5320691369706765,369.04371107008774,None,None,None,,,,,,,12221fast1,001,2021_Dec_02_1643,InfinityThesisTest5,2021.2.3,60.12194449780064,
,Number has an end,i,,,,,0,123,123,58,,,,,,,370.59495711303316,371.04465759405866,371.0778599170735,None,i,1,2.6538612849544734,371.0778599170735,None,None,None,,,,,,,12221fast1,001,2021_Dec_02_1643,InfinityThesisTest5,2021.2.3,60.12194449780064,
,A pencil is used to write,e,,,,,0,124,124,131,,,,,,,373.7623592830496,374.21109460201114,374.24461622408126,None,e,1,0.9429105439921841,374.24461622408126,None,None,None,,,,,,,12221fast1,001,2021_Dec_02_1643,InfinityThesisTest5,2021.2.3,60.12194449780064,
,Numerical intervals cannot go on forever,e,,,,,0,125,125,36,,,,,,,375.2278423419921,375.6785498390673,375.69457872002386,None,i,0,1.684052381082438,375.69457872002386,None,None,None,,,,,,,12221fast1,001,2021_Dec_02_1643,InfinityThesisTest5,2021.2.3,60.12194449780064,
,Time has an end,i,,,,,0,126,126,42,,,,,,,377.3945262100315,377.8450391780352,377.8778624039842,None,i,1,2.465372233069502,377.8778624039842,None,None,None,,,,,,,12221fast1,001,2021_Dec_02_1643,InfinityThesisTest5,2021.2.3,60.12194449780064,
,Frogs reproduce,e,,,,,0,127,127,76,,,,,,,380.3611906010192,380.8120544049889,380.8459169700509,None,e,1,0.6701843270566314,380.8459169700509,None,None,None,,,,,,,12221fast1,001,2021_Dec_02_1643,InfinityThesisTest5,2021.2.3,60.12194449780064,
,Bacteria are alive,e,,,,,0,128,128,93,,,,,,,381.54491012799554,381.9958013430005,382.02808027807623,None,e,1,0.49788013903889805,382.02808027807623,None,None,None,,,,,,,12221fast1,001,2021_Dec_02_1643,InfinityThesisTest5,2021.2.3,60.12194449780064,
,Spatial intervals cannot be further divided,i,,,,,0,129,129,30,,,,,,,382.5448630939936,382.99589643708896,383.02913540799636,None,e,0,2.054683046997525,383.02913540799636,None,None,None,,,,,,,12221fast1,001,2021_Dec_02_1643,InfinityThesisTest5,2021.2.3,60.12194449780064,
,Crocodiles are alive,e,,,,,0,130,130,72,,,,,,,385.1121552779805,385.5632385479985,385.59526213502977,None,e,1,1.317667601048015,385.59526213502977,None,None,None,,,,,,,12221fast1,001,2021_Dec_02_1643,InfinityThesisTest5,2021.2.3,60.12194449780064,
,Computers reproduce,i,,,,,0,131,131,86,,,,,,,386.9286138419993,387.37895814003423,387.41222348005977,None,e,0,0.8337215549545363,387.41222348005977,None,None,None,,,,,,,12221fast1,001,2021_Dec_02_1643,InfinityThesisTest5,2021.2.3,60.12194449780064,
,Spatial intervals cannot go on forever,e,,,,,0,132,132,28,,,,,,,388.2626766670728,388.7127217040397,388.7465192710515,None,i,0,2.4338570229010656,388.7465192710515,None,None,None,,,,,,,12221fast1,001,2021_Dec_02_1643,InfinityThesisTest5,2021.2.3,60.12194449780064,
,There are ninty states in the United States,i,,,,,0,133,133,149,,,,,,,391.22836190403905,391.679188586073,391.71213579003233,None,i,1,1.2691246590111405,391.71213579003233,None,None,None,,,,,,,12221fast1,001,2021_Dec_02_1643,InfinityThesisTest5,2021.2.3,60.12194449780064,
,Humans can breathe water,i,,,,,0,134,134,140,,,,,,,393.0123912000563,393.46264797006734,393.496465768083,398.49704298703,i,1,5.196205068030395,393.496465768083,None,396.49593940731137,None,,,,,,,12221fast1,001,2021_Dec_02_1643,InfinityThesisTest5,2021.2.3,60.12194449780064,
,This sentence is written in Spanish,i,,,,,0,135,135,132,,,,,,,398.71350162499584,399.1628849899862,399.1963091089856,None,i,1,1.0584049300523475,399.1963091089856,None,None,None,,,,,,,12221fast1,001,2021_Dec_02_1643,InfinityThesisTest5,2021.2.3,60.12194449780064,
,Five can go on forever,i,,,,,0,136,136,69,,,,,,,400.29759040498175,400.7460899670841,400.76309785607737,None,i,1,3.3860644469968975,400.76309785607737,None,403.7636415153276,None,,,,,,,12221fast1,001,2021_Dec_02_1643,InfinityThesisTest5,2021.2.3,60.12194449780064,
,An inch has an end,e,,,,,0,137,137,10,,,,,,,404.1800884890836,404.6306612670887,404.6637752270326,None,e,1,1.1873626599553972,404.6637752270326,None,None,None,,,,,,,12221fast1,001,2021_Dec_02_1643,InfinityThesisTest5,2021.2.3,60.12194449780064,
,Number cannot go on forever,i,,,,,0,138,138,60,,,,,,,405.880015466013,406.3301190570928,406.3641955590574,None,e,0,1.6416701219277456,406.3641955590574,None,None,None,,,,,,,12221fast1,001,2021_Dec_02_1643,InfinityThesisTest5,2021.2.3,60.12194449780064,
,Humans can drink water,e,,,,,0,139,139,120,,,,,,,408.0308215119876,408.4809320800705,408.51426073908806,None,i,0,2.9883820000104606,408.51426073908806,None,411.5145794213051,None,,,,,,,12221fast1,001,2021_Dec_02_1643,InfinityThesisTest5,2021.2.3,60.12194449780064,
,An inch cannot be further divided,i,,,,,0,140,140,14,,,,,,,411.52995492203627,411.9812484330032,412.01475524005946,None,e,0,3.949972079019062,412.01475524005946,None,415.015418389393,None,,,,,,,12221fast1,001,2021_Dec_02_1643,InfinityThesisTest5,2021.2.3,60.12194449780064,
,Clocks are alive,i,,,,,0,141,141,82,,,,,,,415.98083898006007,416.43142695107963,416.4640392350266,None,i,1,1.105184460990131,416.4640392350266,None,None,None,,,,,,,12221fast1,001,2021_Dec_02_1643,InfinityThesisTest5,2021.2.3,60.12194449780064,
,Thoughts are composed of matter,i,,,,,0,142,142,109,,,,,,,417.59827926708385,418.0476232949877,418.0815670810407,None,i,1,3.612486891099252,418.0815670810407,None,421.08222690334077,None,,,,,,,12221fast1,001,2021_Dec_02_1643,InfinityThesisTest5,2021.2.3,60.12194449780064,
,Jupiter is in our solar system,e,,,,,0,143,143,125,,,,,,,421.715346588986,422.16497082903516,422.1987500260584,None,e,1,4.224548787926324,422.1987500260584,None,425.1985716883093,None,,,,,,,12221fast1,001,2021_Dec_02_1643,InfinityThesisTest5,2021.2.3,60.12194449780064,
,Space can go on forever,e,,,,,0,144,144,53,,,,,,,426.44814281899016,426.89855785807595,426.93181839201134,None,e,1,1.147885495913215,426.93181839201134,None,None,None,,,,,,,12221fast1,001,2021_Dec_02_1643,InfinityThesisTest5,2021.2.3,60.12194449780064,
,Number can go on forever,e,,,,,0,145,145,61,,,,,,,428.0983542650938,428.54868852708023,428.5827728090808,None,e,1,0.8208179189823568,428.5827728090808,None,None,None,,,,,,,12221fast1,001,2021_Dec_02_1643,InfinityThesisTest5,2021.2.3,60.12194449780064,
,An inch is finite,e,,,,,0,146,146,8,,,,,,,429.43208081799094,429.88213922304567,429.9161755620735,None,e,1,1.3133461239049211,429.9161755620735,None,None,None,,,,,,,12221fast1,001,2021_Dec_02_1643,InfinityThesisTest5,2021.2.3,60.12194449780064,
,Algae is alive,e,,,,,0,147,147,92,,,,,,,431.2486383530777,431.697985963081,431.73243417206686,None,e,1,0.814047931926325,431.73243417206686,None,None,None,,,,,,,12221fast1,001,2021_Dec_02_1643,InfinityThesisTest5,2021.2.3,60.12194449780064,
,Space cannot be further divided,i,,,,,0,148,148,54,,,,,,,432.56552373303566,433.0159445810132,433.0487164390506,None,e,0,4.393180198036134,433.0487164390506,None,436.04961812233086,None,,,,,,,12221fast1,001,2021_Dec_02_1643,InfinityThesisTest5,2021.2.3,60.12194449780064,
,Time cannot go on forever,i,,,,,0,149,149,44,,,,,,,437.4659557680134,437.916618068004,437.94872239104006,None,i,1,1.8888567639514804,437.94872239104006,None,None,None,,,,,,,12221fast1,001,2021_Dec_02_1643,InfinityThesisTest5,2021.2.3,60.12194449780064,
,Yellow is an animal,i,,,,,0,150,150,139,,,,,,,439.883027562988,440.33283983706497,440.3488286610227,None,i,1,0.9539609020575881,440.3488286610227,None,None,None,,,,,,,12221fast1,001,2021_Dec_02_1643,InfinityThesisTest5,2021.2.3,60.12194449780064,
,Gravity has a molecular structure,i,,,,,0,151,151,91,,,,,,,441.34981709101703,441.7998668010114,441.8167329370044,None,i,1,1.6378528058994561,441.8167329370044,None,None,None,,,,,,,12221fast1,001,2021_Dec_02_1643,InfinityThesisTest5,2021.2.3,60.12194449780064,
,,,,,,,,,,,,,,,,,,,,,,,,,,,,443.5832808200503,None,e,0.9749986480455846,443.5832808200503,None,12221fast1,001,2021_Dec_02_1643,InfinityThesisTest5,2021.2.3,60.12194449780064,
