INSTRESP.keys,INSTRESP.rt,Instrloop.thisRepN,Instrloop.thisTrialN,Instrloop.thisN,Instrloop.thisIndex,Instrloop.ran,FastInstructions,participant,date,expName,psychopyVersion,OS,frameRate,key_resp_2.keys,key_resp_2.corr,key_resp_2.rt,Advance_Resp.keys,Advance_Resp.rt,Practice.thisRepN,Practice.thisTrialN,Practice.thisN,Practice.thisIndex,Practice.ran,practicetext,practicecorrect,key_resp_3.keys,key_resp_3.rt,key_resp.keys,key_resp.corr,key_resp.rt,encouragekey.keys,FastLoop.thisRepN,FastLoop.thisTrialN,FastLoop.thisN,FastLoop.thisIndex,FastLoop.ran,Statement,Correct,encouragekey.rt,endstudykey.keys,endstudykey.rt
space,9.6536,0,0,0,0,1,"You will be shown a total of 80 statements pertaining to mathematics, science, and social concepts. Your task is to determine whether each statement is true or false as quickly as possible without sacrificing accuracy. Some statements will be difficult and some will be easier.  We do not expect you to know the correct answer for all 80 statements.  Press SPACE to Continue",1348,2022-04-06_19h09.51.713,ImplicitInfinitySC-FASTTASK,2021.2.3,Win32,60.12506013,,,,,,,,,,,,,,,,,,,,,,,,,,,,
space,18.0206,0,1,1,1,1,"Each statement will appear on your screen for up to 4 seconds and you will have those 4 seconds to decide if it is true or false before the next statement appears. There will be a beep to inform you that you have 2.5 seconds remaining. Please make sure the sound on your computer is turned on. If you do not respond, that answer will be considered incorrect and the task will move on to the next statement. Press SPACE to continue",1348,2022-04-06_19h09.51.713,ImplicitInfinitySC-FASTTASK,2021.2.3,Win32,60.12506013,,,,,,,,,,,,,,,,,,,,,,,,,,,,
,,0,2,2,2,1,"If the statement is true, you will press the “F” key on your keyboard with your left pointer finger; if the statement is false, you will press the “J” key on your keyboard with your right pointer finger. Press SPACE to continue",1348,2022-04-06_19h09.51.713,ImplicitInfinitySC-FASTTASK,2021.2.3,Win32,60.12506013,,,,,,,,,,,,,,,,,,,,,,,,,,,,
space,9.8309,0,3,3,3,1,"Prior to completing the study, you will complete 10 practice trials to familiarize yourself with the task. Your performance on these trials will determine your participation in the following study. Press SPACE to continue.",1348,2022-04-06_19h09.51.713,ImplicitInfinitySC-FASTTASK,2021.2.3,Win32,60.12506013,,,,,,,,,,,,,,,,,,,,,,,,,,,,
space,0.6941,0,4,4,4,1,"If the statement is true, press the “F” key on your keyboard with your left pointer finger; if the statement is false, press the “J” key on your keyboard with your right pointer finger. Press SPACE to continue",1348,2022-04-06_19h09.51.713,ImplicitInfinitySC-FASTTASK,2021.2.3,Win32,60.12506013,,,,,,,,,,,,,,,,,,,,,,,,,,,,
,,,,,,,,1348,2022-04-06_19h09.51.713,ImplicitInfinitySC-FASTTASK,2021.2.3,Win32,60.12506013,f,1,1.3014,space,0.8796,0,0,0,2,1,Magenta is a color,f,,,,,,,,,,,,,,,,
,,,,,,,,1348,2022-04-06_19h09.51.713,ImplicitInfinitySC-FASTTASK,2021.2.3,Win32,60.12506013,f,1,1.2636,space,0.2106,0,1,1,3,1,A clock is used to tell time,f,,,,,,,,,,,,,,,,
,,,,,,,,1348,2022-04-06_19h09.51.713,ImplicitInfinitySC-FASTTASK,2021.2.3,Win32,60.12506013,f,1,0.845,space,0.138,0,2,2,0,1,A circle is a shape,f,,,,,,,,,,,,,,,,
,,,,,,,,1348,2022-04-06_19h09.51.713,ImplicitInfinitySC-FASTTASK,2021.2.3,Win32,60.12506013,j,1,1.3158,space,0.558,0,3,3,7,1,The Earth is a star,j,,,,,,,,,,,,,,,,
,,,,,,,,1348,2022-04-06_19h09.51.713,ImplicitInfinitySC-FASTTASK,2021.2.3,Win32,60.12506013,f,1,1.5521,space,0.1912,0,4,4,4,1,Humans cannot breathe water,f,,,,,,,,,,,,,,,,
,,,,,,,,1348,2022-04-06_19h09.51.713,ImplicitInfinitySC-FASTTASK,2021.2.3,Win32,60.12506013,j,1,1.8972,space,0.2145,0,5,5,8,1,Mississippi is a country,j,,,,,,,,,,,,,,,,
,,,,,,,,1348,2022-04-06_19h09.51.713,ImplicitInfinitySC-FASTTASK,2021.2.3,Win32,60.12506013,f,1,1.1357,space,0.1669,0,6,6,1,1,Dinosaurs are extinct,f,,,,,,,,,,,,,,,,
,,,,,,,,1348,2022-04-06_19h09.51.713,ImplicitInfinitySC-FASTTASK,2021.2.3,Win32,60.12506013,j,1,1.3498,space,0.3432,0,7,7,6,1,Jupiter is the planet we live on,j,,,,,,,,,,,,,,,,
,,,,,,,,1348,2022-04-06_19h09.51.713,ImplicitInfinitySC-FASTTASK,2021.2.3,Win32,60.12506013,j,1,1.2631,space,0.2316,0,8,8,5,1,A truck is an animal,j,,,,,,,,,,,,,,,,
,,,,,,,,1348,2022-04-06_19h09.51.713,ImplicitInfinitySC-FASTTASK,2021.2.3,Win32,60.12506013,f,0,0.9517,space,1.1189,0,9,9,9,1,Humans cannot eat food,j,,,,,,,,,,,,,,,,
,,,,,,,,1348,2022-04-06_19h09.51.713,ImplicitInfinitySC-FASTTASK,2021.2.3,Win32,60.12506013,,,,space,0.6803,,,,,,,,space,6.3348,f,1,1.2071,,0,0,0,2,1,A minute has an end,f,,,
,,,,,,,,1348,2022-04-06_19h09.51.713,ImplicitInfinitySC-FASTTASK,2021.2.3,Win32,60.12506013,,,,space,0.3645,,,,,,,,,,j,1,1.2469,,0,1,1,36,1,Numbers cannot go on forever,j,,,
,,,,,,,,1348,2022-04-06_19h09.51.713,ImplicitInfinitySC-FASTTASK,2021.2.3,Win32,60.12506013,,,,space,0.3743,,,,,,,,,,j,1,1.1109,,0,2,2,82,1,Stones reproduce,j,,,
,,,,,,,,1348,2022-04-06_19h09.51.713,ImplicitInfinitySC-FASTTASK,2021.2.3,Win32,60.12506013,,,,space,0.371,,,,,,,,,,j,0,0.9325,,0,3,3,4,1,A minute cannot go on forever,f,,,
,,,,,,,,1348,2022-04-06_19h09.51.713,ImplicitInfinitySC-FASTTASK,2021.2.3,Win32,60.12506013,,,,space,0.5106,,,,,,,,,,f,0,0.8979,,0,4,4,67,1,Gravity has a molecular structure,j,,,
,,,,,,,,1348,2022-04-06_19h09.51.713,ImplicitInfinitySC-FASTTASK,2021.2.3,Win32,60.12506013,,,,space,0.4532,,,,,,,,,,j,0,1.0794,,0,5,5,37,1,Numbers can go on forever,f,,,
,,,,,,,,1348,2022-04-06_19h09.51.713,ImplicitInfinitySC-FASTTASK,2021.2.3,Win32,60.12506013,,,,space,0.304,,,,,,,,,,f,0,1.2683,,0,6,6,30,1,Space cannot always be further divided,j,,,
,,,,,,,,1348,2022-04-06_19h09.51.713,ImplicitInfinitySC-FASTTASK,2021.2.3,Win32,60.12506013,,,,space,0.367,,,,,,,,,,f,1,0.9298,,0,7,7,55,1,Concrete is composed of matter,f,,,
,,,,,,,,1348,2022-04-06_19h09.51.713,ImplicitInfinitySC-FASTTASK,2021.2.3,Win32,60.12506013,,,,space,0.4018,,,,,,,,,,j,1,0.805,,0,8,8,79,1,Forks are alive,j,,,
,,,,,,,,1348,2022-04-06_19h09.51.713,ImplicitInfinitySC-FASTTASK,2021.2.3,Win32,60.12506013,,,,space,0.3055,,,,,,,,,,f,1,0.668,,0,9,9,94,1,Orange is a color,f,,,
,,,,,,,,1348,2022-04-06_19h09.51.713,ImplicitInfinitySC-FASTTASK,2021.2.3,Win32,60.12506013,,,,space,0.3086,,,,,,,,,,f,1,0.934,,0,10,10,50,1,Turtles need nutrients,f,,,
,,,,,,,,1348,2022-04-06_19h09.51.713,ImplicitInfinitySC-FASTTASK,2021.2.3,Win32,60.12506013,,,,space,0.2366,,,,,,,,,,j,1,1.0146,,0,11,11,13,1,An inch can go on forever,j,,,
,,,,,,,,1348,2022-04-06_19h09.51.713,ImplicitInfinitySC-FASTTASK,2021.2.3,Win32,60.12506013,,,,space,0.4954,,,,,,,,,,f,0,0.7789,,0,12,12,32,1,Numbers are finite,j,,,
,,,,,,,,1348,2022-04-06_19h09.51.713,ImplicitInfinitySC-FASTTASK,2021.2.3,Win32,60.12506013,,,,space,0.1618,,,,,,,,,,f,1,0.7501,,0,13,13,100,1,A truck is a vehicle,f,,,
,,,,,,,,1348,2022-04-06_19h09.51.713,ImplicitInfinitySC-FASTTASK,2021.2.3,Win32,60.12506013,,,,space,0.0915,,,,,,,,,,f,1,0.9552,,0,14,14,27,1,Space is endless,f,,,
,,,,,,,,1348,2022-04-06_19h09.51.713,ImplicitInfinitySC-FASTTASK,2021.2.3,Win32,60.12506013,,,,space,0.1403,,,,,,,,,,j,1,1.2013,,0,15,15,80,1,Mittens need nutrients,j,,,
,,,,,,,,1348,2022-04-06_19h09.51.713,ImplicitInfinitySC-FASTTASK,2021.2.3,Win32,60.12506013,,,,space,0.1093,,,,,,,,,,j,1,0.9848,,0,16,16,28,1,Space cannot go on forever,j,,,
,,,,,,,,1348,2022-04-06_19h09.51.713,ImplicitInfinitySC-FASTTASK,2021.2.3,Win32,60.12506013,,,,space,0.2278,,,,,,,,,,f,1,0.8696,,0,17,17,88,1,This sentence is written in English,f,,,
,,,,,,,,1348,2022-04-06_19h09.51.713,ImplicitInfinitySC-FASTTASK,2021.2.3,Win32,60.12506013,,,,space,0.3409,,,,,,,,,,f,1,1.0596,,0,18,18,29,1,Space can go on forever,f,,,
,,,,,,,,1348,2022-04-06_19h09.51.713,ImplicitInfinitySC-FASTTASK,2021.2.3,Win32,60.12506013,,,,space,0.2021,,,,,,,,,,f,1,1.201,,0,19,19,40,1,The number five is finite,f,,,
,,,,,,,,1348,2022-04-06_19h09.51.713,ImplicitInfinitySC-FASTTASK,2021.2.3,Win32,60.12506013,,,,space,0.2363,,,,,,,,,,j,1,1.257,,0,20,20,64,1,Echoes are composed of matter,j,,,
,,,,,,,,1348,2022-04-06_19h09.51.713,ImplicitInfinitySC-FASTTASK,2021.2.3,Win32,60.12506013,,,,space,0.2069,,,,,,,,,,f,1,0.951,,0,21,21,105,1,There are fifty states in the United States,f,,,
,,,,,,,,1348,2022-04-06_19h09.51.713,ImplicitInfinitySC-FASTTASK,2021.2.3,Win32,60.12506013,,,,space,0.2392,,,,,,,,,,j,1,1.2612,,0,22,22,24,1,Space is finite,j,,,
,,,,,,,,1348,2022-04-06_19h09.51.713,ImplicitInfinitySC-FASTTASK,2021.2.3,Win32,60.12506013,,,,space,0.2001,,,,,,,,,,f,1,0.9013,,0,23,23,25,1,Space is infinite,f,,,
,,,,,,,,1348,2022-04-06_19h09.51.713,ImplicitInfinitySC-FASTTASK,2021.2.3,Win32,60.12506013,,,,space,0.5751,,,,,,,,,,j,1,1.3722,,0,24,24,6,1,A minute cannot always be further divided,j,,,
,,,,,,,,1348,2022-04-06_19h09.51.713,ImplicitInfinitySC-FASTTASK,2021.2.3,Win32,60.12506013,,,,space,0.2213,,,,,,,,,,j,1,1.351,,0,25,25,43,1,The number five is endless,j,,,
,,,,,,,,1348,2022-04-06_19h09.51.713,ImplicitInfinitySC-FASTTASK,2021.2.3,Win32,60.12506013,,,,space,0.1235,,,,,,,,,,j,1,0.8666,,0,26,26,111,1,A circle is a flavor,j,,,
,,,,,,,,1348,2022-04-06_19h09.51.713,ImplicitInfinitySC-FASTTASK,2021.2.3,Win32,60.12506013,,,,space,0.0854,,,,,,,,,,j,1,0.9551,,0,27,27,60,1,Robots need nutrients,j,,,
,,,,,,,,1348,2022-04-06_19h09.51.713,ImplicitInfinitySC-FASTTASK,2021.2.3,Win32,60.12506013,,,,space,0.1026,,,,,,,,,,j,1,0.8854,,0,28,28,120,1,A truck is an animal,j,,,
,,,,,,,,1348,2022-04-06_19h09.51.713,ImplicitInfinitySC-FASTTASK,2021.2.3,Win32,60.12506013,,,,space,0.0792,,,,,,,,,,j,0,0.8198,,0,29,29,12,1,An inch cannot go on forever,f,,,
,,,,,,,,1348,2022-04-06_19h09.51.713,ImplicitInfinitySC-FASTTASK,2021.2.3,Win32,60.12506013,,,,space,0.0898,,,,,,,,,,f,1,1.3633,,0,30,30,7,1,A minute can always be further divided,f,,,
,,,,,,,,1348,2022-04-06_19h09.51.713,ImplicitInfinitySC-FASTTASK,2021.2.3,Win32,60.12506013,,,,space,0.11,,,,,,,,,,j,1,0.9006,,0,31,31,81,1,Tables reproduce,j,,,
,,,,,,,,1348,2022-04-06_19h09.51.713,ImplicitInfinitySC-FASTTASK,2021.2.3,Win32,60.12506013,,,,space,0.0954,,,,,,,,,,j,1,1.136,,0,32,32,11,1,An inch is endless,j,,,
,,,,,,,,1348,2022-04-06_19h09.51.713,ImplicitInfinitySC-FASTTASK,2021.2.3,Win32,60.12506013,,,,space,0.101,,,,,,,,,,j,1,0.8504,,0,33,33,110,1,A triangle is an animal,j,,,
,,,,,,,,1348,2022-04-06_19h09.51.713,ImplicitInfinitySC-FASTTASK,2021.2.3,Win32,60.12506013,,,,space,0.0438,,,,,,,,,,f,1,0.8698,,0,34,34,91,1,A circle is a shape,f,,,
,,,,,,,,1348,2022-04-06_19h09.51.713,ImplicitInfinitySC-FASTTASK,2021.2.3,Win32,60.12506013,,,,space,0.4858,,,,,,,,,,j,0,1.0839,,0,35,35,21,1,Time can go on forever,f,,,
,,,,,,,,1348,2022-04-06_19h09.51.713,ImplicitInfinitySC-FASTTASK,2021.2.3,Win32,60.12506013,,,,space,0.1716,,,,,,,,,,j,1,1.084,,0,36,36,118,1,A horse is used to tell time,j,,,
,,,,,,,,1348,2022-04-06_19h09.51.713,ImplicitInfinitySC-FASTTASK,2021.2.3,Win32,60.12506013,,,,space,0.1874,,,,,,,,,,f,1,0.9191,,0,37,37,19,1,Time is endless,f,,,
,,,,,,,,1348,2022-04-06_19h09.51.713,ImplicitInfinitySC-FASTTASK,2021.2.3,Win32,60.12506013,,,,space,0.1371,,,,,,,,,,j,1,1.958,,0,38,38,14,1,An inch cannot always be further divided,j,,,
,,,,,,,,1348,2022-04-06_19h09.51.713,ImplicitInfinitySC-FASTTASK,2021.2.3,Win32,60.12506013,,,,space,0.2293,,,,,,,,,,f,0,0.9401,,0,39,39,16,1,Time is finite,j,,,
,,,,,,,,1348,2022-04-06_19h09.51.713,ImplicitInfinitySC-FASTTASK,2021.2.3,Win32,60.12506013,,,,space,1.0556,,,,,,,,,,f,1,0.8661,space,0,40,40,51,1,Tigers reproduce,f,0.277,,
,,,,,,,,1348,2022-04-06_19h09.51.713,ImplicitInfinitySC-FASTTASK,2021.2.3,Win32,60.12506013,,,,space,0.3065,,,,,,,,,,j,1,1.1281,,0,41,41,63,1,Color can be put in a container,j,,,
,,,,,,,,1348,2022-04-06_19h09.51.713,ImplicitInfinitySC-FASTTASK,2021.2.3,Win32,60.12506013,,,,space,0.1569,,,,,,,,,,f,1,0.7668,,0,42,42,71,1,Oaks reproduce,f,,,
,,,,,,,,1348,2022-04-06_19h09.51.713,ImplicitInfinitySC-FASTTASK,2021.2.3,Win32,60.12506013,,,,space,0.1611,,,,,,,,,,j,1,1.1338,,0,43,43,124,1,The president of the United States is Oprah,j,,,
,,,,,,,,1348,2022-04-06_19h09.51.713,ImplicitInfinitySC-FASTTASK,2021.2.3,Win32,60.12506013,,,,space,0.5677,,,,,,,,,,f,1,1.1355,,0,44,44,106,1,Humans cannot breathe water,f,,,
,,,,,,,,1348,2022-04-06_19h09.51.713,ImplicitInfinitySC-FASTTASK,2021.2.3,Win32,60.12506013,,,,space,0.0908,,,,,,,,,,f,1,0.6737,,0,45,45,93,1,Magenta is a color,f,,,
,,,,,,,,1348,2022-04-06_19h09.51.713,ImplicitInfinitySC-FASTTASK,2021.2.3,Win32,60.12506013,,,,space,0.1053,,,,,,,,,,j,0,1.1246,,0,46,46,44,1,The number five cannot go on forever,f,,,
,,,,,,,,1348,2022-04-06_19h09.51.713,ImplicitInfinitySC-FASTTASK,2021.2.3,Win32,60.12506013,,,,space,0.0771,,,,,,,,,,f,1,1.1149,,0,47,47,101,1,Jupiter is in our solar system,f,,,
,,,,,,,,1348,2022-04-06_19h09.51.713,ImplicitInfinitySC-FASTTASK,2021.2.3,Win32,60.12506013,,,,space,0.0728,,,,,,,,,,j,0,1.2374,,0,48,48,33,1,Numbers are infinite,f,,,
,,,,,,,,1348,2022-04-06_19h09.51.713,ImplicitInfinitySC-FASTTASK,2021.2.3,Win32,60.12506013,,,,space,0.0902,,,,,,,,,,j,0,0.8394,,0,49,49,90,1,A triangle is not an animal,f,,,
,,,,,,,,1348,2022-04-06_19h09.51.713,ImplicitInfinitySC-FASTTASK,2021.2.3,Win32,60.12506013,,,,space,0.1221,,,,,,,,,,f,0,1.4751,,0,50,50,1,1,A minute is infinite,j,,,
,,,,,,,,1348,2022-04-06_19h09.51.713,ImplicitInfinitySC-FASTTASK,2021.2.3,Win32,60.12506013,,,,space,0.095,,,,,,,,,,f,1,0.9889,,0,51,51,23,1,Time can always be further divided,f,,,
,,,,,,,,1348,2022-04-06_19h09.51.713,ImplicitInfinitySC-FASTTASK,2021.2.3,Win32,60.12506013,,,,space,0.0884,,,,,,,,,,j,1,0.8676,,0,52,52,58,1,Clocks are alive,j,,,
,,,,,,,,1348,2022-04-06_19h09.51.713,ImplicitInfinitySC-FASTTASK,2021.2.3,Win32,60.12506013,,,,space,0.234,,,,,,,,,,f,1,1.1262,,0,53,53,73,1,Bubbles can be put in a container,f,,,
,,,,,,,,1348,2022-04-06_19h09.51.713,ImplicitInfinitySC-FASTTASK,2021.2.3,Win32,60.12506013,,,,space,0.1078,,,,,,,,,,f,1,0.7521,,0,54,54,89,1,A square is a shape,f,,,
,,,,,,,,1348,2022-04-06_19h09.51.713,ImplicitInfinitySC-FASTTASK,2021.2.3,Win32,60.12506013,,,,space,0.1274,,,,,,,,,,f,0,1.0869,,0,55,55,83,1,Songs can be put in a container,j,,,
,,,,,,,,1348,2022-04-06_19h09.51.713,ImplicitInfinitySC-FASTTASK,2021.2.3,Win32,60.12506013,,,,space,0.0793,,,,,,,,,,f,1,0.7504,,0,56,56,69,1,Bacteria are alive,f,,,
,,,,,,,,1348,2022-04-06_19h09.51.713,ImplicitInfinitySC-FASTTASK,2021.2.3,Win32,60.12506013,,,,space,0.0621,,,,,,,,,,f,1,1.4177,,0,57,57,31,1,Space can always be further divided,f,,,
,,,,,,,,1348,2022-04-06_19h09.51.713,ImplicitInfinitySC-FASTTASK,2021.2.3,Win32,60.12506013,,,,space,0.075,,,,,,,,,,j,1,1.045,,0,58,58,22,1,Time cannot always be further divided,j,,,
,,,,,,,,1348,2022-04-06_19h09.51.713,ImplicitInfinitySC-FASTTASK,2021.2.3,Win32,60.12506013,,,,space,0.0172,,,,,,,,,,f,1,0.9028,,0,59,59,96,1,Fish can swim in the ocean,f,,,
,,,,,,,,1348,2022-04-06_19h09.51.713,ImplicitInfinitySC-FASTTASK,2021.2.3,Win32,60.12506013,,,,space,0.0493,,,,,,,,,,f,0,0.7537,,0,60,60,122,1,The Earth is a star,j,,,
,,,,,,,,1348,2022-04-06_19h09.51.713,ImplicitInfinitySC-FASTTASK,2021.2.3,Win32,60.12506013,,,,space,0.0893,,,,,,,,,,f,1,0.8567,,0,61,61,39,1,Numbers can always be further divided,f,,,
,,,,,,,,1348,2022-04-06_19h09.51.713,ImplicitInfinitySC-FASTTASK,2021.2.3,Win32,60.12506013,,,,space,0.0936,,,,,,,,,,f,1,0.9351,,0,62,62,35,1,Numbers are endless,f,,,
,,,,,,,,1348,2022-04-06_19h09.51.713,ImplicitInfinitySC-FASTTASK,2021.2.3,Win32,60.12506013,,,,space,0.0674,,,,,,,,,,f,0,0.7176,,0,63,63,26,1,Space has an end,j,,,
,,,,,,,,1348,2022-04-06_19h09.51.713,ImplicitInfinitySC-FASTTASK,2021.2.3,Win32,60.12506013,,,,space,0.104,,,,,,,,,,j,1,0.9152,,0,64,64,119,1,A motorcycle is a person,j,,,
,,,,,,,,1348,2022-04-06_19h09.51.713,ImplicitInfinitySC-FASTTASK,2021.2.3,Win32,60.12506013,,,,space,0.1344,,,,,,,,,,f,0,1.2018,,0,65,65,45,1,The number five can go on forever,j,,,
,,,,,,,,1348,2022-04-06_19h09.51.713,ImplicitInfinitySC-FASTTASK,2021.2.3,Win32,60.12506013,,,,space,0.1051,,,,,,,,,,f,1,0.7464,,0,66,66,102,1,The Earth is a planet,f,,,
,,,,,,,,1348,2022-04-06_19h09.51.713,ImplicitInfinitySC-FASTTASK,2021.2.3,Win32,60.12506013,,,,space,0.0808,,,,,,,,,,j,1,0.9282,,0,67,67,66,1,Music has a molecular structure,j,,,
,,,,,,,,1348,2022-04-06_19h09.51.713,ImplicitInfinitySC-FASTTASK,2021.2.3,Win32,60.12506013,,,,space,0.8778,,,,,,,,,,f,0,0.822,,0,68,68,5,1,A minute can go on forever,j,,,
,,,,,,,,1348,2022-04-06_19h09.51.713,ImplicitInfinitySC-FASTTASK,2021.2.3,Win32,60.12506013,,,,space,0.1224,,,,,,,,,,f,1,1.1075,,0,69,69,76,1,Pollen has a molecular structure,f,,,
,,,,,,,,1348,2022-04-06_19h09.51.713,ImplicitInfinitySC-FASTTASK,2021.2.3,Win32,60.12506013,,,,space,0.1114,,,,,,,,,,j,1,1.1041,,0,70,70,18,1,Time has an end,j,,,
,,,,,,,,1348,2022-04-06_19h09.51.713,ImplicitInfinitySC-FASTTASK,2021.2.3,Win32,60.12506013,,,,space,0.0524,,,,,,,,,,f,1,0.6958,,0,71,71,70,1,Grass needs nutrients,f,,,
,,,,,,,,1348,2022-04-06_19h09.51.713,ImplicitInfinitySC-FASTTASK,2021.2.3,Win32,60.12506013,,,,space,0.0729,,,,,,,,,,j,1,0.892,,0,72,72,127,1,A zebra is used to write,j,,,
,,,,,,,,1348,2022-04-06_19h09.51.713,ImplicitInfinitySC-FASTTASK,2021.2.3,Win32,60.12506013,,,,space,0.0729,,,,,,,,,,j,0,0.901,,0,73,73,74,1,Foam is composed of matter,f,,,
,,,,,,,,1348,2022-04-06_19h09.51.713,ImplicitInfinitySC-FASTTASK,2021.2.3,Win32,60.12506013,,,,space,0.1016,,,,,,,,,,f,1,0.7969,,0,74,74,98,1,A clock is used to tell time,f,,,
,,,,,,,,1348,2022-04-06_19h09.51.713,ImplicitInfinitySC-FASTTASK,2021.2.3,Win32,60.12506013,,,,space,0.1841,,,,,,,,,,j,1,0.6813,,0,75,75,115,1,Yellow is an animal,j,,,
,,,,,,,,1348,2022-04-06_19h09.51.713,ImplicitInfinitySC-FASTTASK,2021.2.3,Win32,60.12506013,,,,space,0.1267,,,,,,,,,,j,1,0.9974,,0,76,76,117,1,Dolphins cannot swim in the ocean,j,,,
,,,,,,,,1348,2022-04-06_19h09.51.713,ImplicitInfinitySC-FASTTASK,2021.2.3,Win32,60.12506013,,,,space,0.0592,,,,,,,,,,f,1,0.7012,,0,77,77,48,1,Crocodiles are alive,f,,,
,,,,,,,,1348,2022-04-06_19h09.51.713,ImplicitInfinitySC-FASTTASK,2021.2.3,Win32,60.12506013,,,,space,0.0463,,,,,,,,,,j,1,0.9338,,0,78,78,108,1,This sentence is written in Spanish,j,,,
,,,,,,,,1348,2022-04-06_19h09.51.713,ImplicitInfinitySC-FASTTASK,2021.2.3,Win32,60.12506013,,,,space,0.1151,,,,,,,,,,j,0,1.0213,,0,79,79,17,1,Time is infinite,f,,,
,,,,,,,,1348,2022-04-06_19h09.51.713,ImplicitInfinitySC-FASTTASK,2021.2.3,Win32,60.12506013,,,,space,0.101,,,,,,,,,,f,1,1.0666,,0,80,80,15,1,An inch can be always further divided,f,,,
,,,,,,,,1348,2022-04-06_19h09.51.713,ImplicitInfinitySC-FASTTASK,2021.2.3,Win32,60.12506013,,,,,,,,,,,,,,,,,,,,,,,,,,,space,17.0383
