INSTRESP.keys,INSTRESP.rt,Instrloop.thisRepN,Instrloop.thisTrialN,Instrloop.thisN,Instrloop.thisIndex,Instrloop.ran,FastInstructions,participant,date,expName,psychopyVersion,OS,frameRate,key_resp_2.keys,key_resp_2.corr,key_resp_2.rt,Advance_Resp.keys,Advance_Resp.rt,Practice.thisRepN,Practice.thisTrialN,Practice.thisN,Practice.thisIndex,Practice.ran,practicetext,practicecorrect,key_resp_3.keys,key_resp_3.rt,key_resp.keys,key_resp.corr,key_resp.rt,encouragekey.keys,FastLoop.thisRepN,FastLoop.thisTrialN,FastLoop.thisN,FastLoop.thisIndex,FastLoop.ran,Statement,Correct,encouragekey.rt,endstudykey.keys,endstudykey.rt
space,5.8203,0,0,0,0,1,"You will be shown a total of 80 statements pertaining to mathematics, science, and social concepts. Your task is to determine whether each statement is true or false as quickly as possible without sacrificing accuracy. Some statements will be difficult and some will be easier.  We do not expect you to know the correct answer for all 80 statements.  Press SPACE to Continue",1407,2022-04-06_16h16.41.028,ImplicitInfinitySC-FASTTASK,2021.2.3,MacIntel,59.97361161,,,,,,,,,,,,,,,,,,,,,,,,,,,,
space,4.9537,0,1,1,1,1,"Each statement will appear on your screen for up to 4 seconds and you will have those 4 seconds to decide if it is true or false before the next statement appears. There will be a beep to inform you that you have 2.5 seconds remaining. Please make sure the sound on your computer is turned on. If you do not respond, that answer will be considered incorrect and the task will move on to the next statement. Press SPACE to continue",1407,2022-04-06_16h16.41.028,ImplicitInfinitySC-FASTTASK,2021.2.3,MacIntel,59.97361161,,,,,,,,,,,,,,,,,,,,,,,,,,,,
space,5.2514,0,2,2,2,1,"If the statement is true, you will press the “F” key on your keyboard with your left pointer finger; if the statement is false, you will press the “J” key on your keyboard with your right pointer finger. Press SPACE to continue",1407,2022-04-06_16h16.41.028,ImplicitInfinitySC-FASTTASK,2021.2.3,MacIntel,59.97361161,,,,,,,,,,,,,,,,,,,,,,,,,,,,
space,0.8375,0,3,3,3,1,"Prior to completing the study, you will complete 10 practice trials to familiarize yourself with the task. Your performance on these trials will determine your participation in the following study. Press SPACE to continue.",1407,2022-04-06_16h16.41.028,ImplicitInfinitySC-FASTTASK,2021.2.3,MacIntel,59.97361161,,,,,,,,,,,,,,,,,,,,,,,,,,,,
space,2.6529,0,4,4,4,1,"If the statement is true, press the “F” key on your keyboard with your left pointer finger; if the statement is false, press the “J” key on your keyboard with your right pointer finger. Press SPACE to continue",1407,2022-04-06_16h16.41.028,ImplicitInfinitySC-FASTTASK,2021.2.3,MacIntel,59.97361161,,,,,,,,,,,,,,,,,,,,,,,,,,,,
,,,,,,,,1407,2022-04-06_16h16.41.028,ImplicitInfinitySC-FASTTASK,2021.2.3,MacIntel,59.97361161,f,1,1.418,space,1.1113,0,0,0,3,1,A clock is used to tell time,f,,,,,,,,,,,,,,,,
,,,,,,,,1407,2022-04-06_16h16.41.028,ImplicitInfinitySC-FASTTASK,2021.2.3,MacIntel,59.97361161,j,1,1.4499,space,0.6183,0,1,1,6,1,Jupiter is the planet we live on,j,,,,,,,,,,,,,,,,
,,,,,,,,1407,2022-04-06_16h16.41.028,ImplicitInfinitySC-FASTTASK,2021.2.3,MacIntel,59.97361161,j,1,1.7852,space,0.7339,0,2,2,7,1,The Earth is a star,j,,,,,,,,,,,,,,,,
,,,,,,,,1407,2022-04-06_16h16.41.028,ImplicitInfinitySC-FASTTASK,2021.2.3,MacIntel,59.97361161,f,1,0.9821,space,0.3677,0,3,3,2,1,Magenta is a color,f,,,,,,,,,,,,,,,,
,,,,,,,,1407,2022-04-06_16h16.41.028,ImplicitInfinitySC-FASTTASK,2021.2.3,MacIntel,59.97361161,j,1,0.9158,space,0.2176,0,4,4,9,1,Humans cannot eat food,j,,,,,,,,,,,,,,,,
,,,,,,,,1407,2022-04-06_16h16.41.028,ImplicitInfinitySC-FASTTASK,2021.2.3,MacIntel,59.97361161,j,1,0.9653,space,0.2024,0,5,5,5,1,A truck is an animal,j,,,,,,,,,,,,,,,,
,,,,,,,,1407,2022-04-06_16h16.41.028,ImplicitInfinitySC-FASTTASK,2021.2.3,MacIntel,59.97361161,f,1,0.7324,space,0.1181,0,6,6,0,1,A circle is a shape,f,,,,,,,,,,,,,,,,
,,,,,,,,1407,2022-04-06_16h16.41.028,ImplicitInfinitySC-FASTTASK,2021.2.3,MacIntel,59.97361161,f,1,1.9507,space,0.235,0,7,7,4,1,Humans cannot breathe water,f,,,,,,,,,,,,,,,,
,,,,,,,,1407,2022-04-06_16h16.41.028,ImplicitInfinitySC-FASTTASK,2021.2.3,MacIntel,59.97361161,f,1,1.3883,space,0.1995,0,8,8,1,1,Dinosaurs are extinct,f,,,,,,,,,,,,,,,,
,,,,,,,,1407,2022-04-06_16h16.41.028,ImplicitInfinitySC-FASTTASK,2021.2.3,MacIntel,59.97361161,j,1,1.0787,space,0.0811,0,9,9,8,1,Mississippi is a country,j,,,,,,,,,,,,,,,,
,,,,,,,,1407,2022-04-06_16h16.41.028,ImplicitInfinitySC-FASTTASK,2021.2.3,MacIntel,59.97361161,,,,space,0.153,,,,,,,,space,1.0093,j,1,1.0788,,0,0,0,11,1,An inch is endless,j,,,
,,,,,,,,1407,2022-04-06_16h16.41.028,ImplicitInfinitySC-FASTTASK,2021.2.3,MacIntel,59.97361161,,,,space,0.1474,,,,,,,,,,j,1,0.8474,,0,1,1,119,1,A motorcycle is a person,j,,,
,,,,,,,,1407,2022-04-06_16h16.41.028,ImplicitInfinitySC-FASTTASK,2021.2.3,MacIntel,59.97361161,,,,space,0.2347,,,,,,,,,,j,1,1.8687,,0,2,2,38,1,Numbers cannot always be further divided,j,,,
,,,,,,,,1407,2022-04-06_16h16.41.028,ImplicitInfinitySC-FASTTASK,2021.2.3,MacIntel,59.97361161,,,,space,0.1334,,,,,,,,,,f,0,0.8839,,0,3,3,87,1,Dreams have a molecular structure,j,,,
,,,,,,,,1407,2022-04-06_16h16.41.028,ImplicitInfinitySC-FASTTASK,2021.2.3,MacIntel,59.97361161,,,,space,0.4199,,,,,,,,,,j,0,0.9144,,0,4,4,50,1,Turtles need nutrients,f,,,
,,,,,,,,1407,2022-04-06_16h16.41.028,ImplicitInfinitySC-FASTTASK,2021.2.3,MacIntel,59.97361161,,,,space,0.1506,,,,,,,,,,j,1,1.1471,,0,5,5,16,1,Time is finite,j,,,
,,,,,,,,1407,2022-04-06_16h16.41.028,ImplicitInfinitySC-FASTTASK,2021.2.3,MacIntel,59.97361161,,,,space,0.1354,,,,,,,,,,j,1,0.6674,,0,6,6,22,1,Time cannot always be further divided,j,,,
,,,,,,,,1407,2022-04-06_16h16.41.028,ImplicitInfinitySC-FASTTASK,2021.2.3,MacIntel,59.97361161,,,,space,0.1345,,,,,,,,,,j,1,0.9831,,0,7,7,114,1,Lightbulbs are made of clay,j,,,
,,,,,,,,1407,2022-04-06_16h16.41.028,ImplicitInfinitySC-FASTTASK,2021.2.3,MacIntel,59.97361161,,,,space,0.1174,,,,,,,,,,j,0,1.016,,0,8,8,21,1,Time can go on forever,f,,,
,,,,,,,,1407,2022-04-06_16h16.41.028,ImplicitInfinitySC-FASTTASK,2021.2.3,MacIntel,59.97361161,,,,space,0.1511,,,,,,,,,,j,0,1.1662,,0,9,9,44,1,The number five cannot go on forever,f,,,
,,,,,,,,1407,2022-04-06_16h16.41.028,ImplicitInfinitySC-FASTTASK,2021.2.3,MacIntel,59.97361161,,,,space,0.1009,,,,,,,,,,j,0,0.8996,,0,10,10,12,1,An inch cannot go on forever,f,,,
,,,,,,,,1407,2022-04-06_16h16.41.028,ImplicitInfinitySC-FASTTASK,2021.2.3,MacIntel,59.97361161,,,,space,0.1489,,,,,,,,,,f,1,1.1121,,0,11,11,42,1,The number five has an end,f,,,
,,,,,,,,1407,2022-04-06_16h16.41.028,ImplicitInfinitySC-FASTTASK,2021.2.3,MacIntel,59.97361161,,,,space,0.1366,,,,,,,,,,f,1,0.7999,,0,12,12,96,1,Fish can swim in the ocean,f,,,
,,,,,,,,1407,2022-04-06_16h16.41.028,ImplicitInfinitySC-FASTTASK,2021.2.3,MacIntel,59.97361161,,,,space,0.1358,,,,,,,,,,f,1,0.8344,,0,13,13,101,1,Jupiter is in our solar system,f,,,
,,,,,,,,1407,2022-04-06_16h16.41.028,ImplicitInfinitySC-FASTTASK,2021.2.3,MacIntel,59.97361161,,,,space,0.1189,,,,,,,,,,j,1,1.1676,,0,14,14,9,1,An inch is infinite,j,,,
,,,,,,,,1407,2022-04-06_16h16.41.028,ImplicitInfinitySC-FASTTASK,2021.2.3,MacIntel,59.97361161,,,,space,0.1352,,,,,,,,,,f,0,0.8666,,0,15,15,67,1,Gravity has a molecular structure,j,,,
,,,,,,,,1407,2022-04-06_16h16.41.028,ImplicitInfinitySC-FASTTASK,2021.2.3,MacIntel,59.97361161,,,,space,0.1208,,,,,,,,,,j,0,1.0827,,0,16,16,7,1,A minute can always be further divided,f,,,
,,,,,,,,1407,2022-04-06_16h16.41.028,ImplicitInfinitySC-FASTTASK,2021.2.3,MacIntel,59.97361161,,,,space,0.1452,,,,,,,,,,j,1,0.6831,,0,17,17,36,1,Numbers cannot go on forever,j,,,
,,,,,,,,1407,2022-04-06_16h16.41.028,ImplicitInfinitySC-FASTTASK,2021.2.3,MacIntel,59.97361161,,,,space,0.0853,,,,,,,,,,j,1,1.0321,,0,18,18,59,1,Comets are alive,j,,,
,,,,,,,,1407,2022-04-06_16h16.41.028,ImplicitInfinitySC-FASTTASK,2021.2.3,MacIntel,59.97361161,,,,space,0.1185,,,,,,,,,,j,1,1.034,,0,19,19,1,1,A minute is infinite,j,,,
,,,,,,,,1407,2022-04-06_16h16.41.028,ImplicitInfinitySC-FASTTASK,2021.2.3,MacIntel,59.97361161,,,,space,0.119,,,,,,,,,,j,0,0.8014,,0,20,20,35,1,Numbers are endless,f,,,
,,,,,,,,1407,2022-04-06_16h16.41.028,ImplicitInfinitySC-FASTTASK,2021.2.3,MacIntel,59.97361161,,,,space,0.1671,,,,,,,,,,j,1,0.8539,,0,21,21,32,1,Numbers are finite,j,,,
,,,,,,,,1407,2022-04-06_16h16.41.028,ImplicitInfinitySC-FASTTASK,2021.2.3,MacIntel,59.97361161,,,,space,0.1356,,,,,,,,,,j,0,0.7336,,0,22,22,8,1,An inch is finite,f,,,
,,,,,,,,1407,2022-04-06_16h16.41.028,ImplicitInfinitySC-FASTTASK,2021.2.3,MacIntel,59.97361161,,,,space,0.1008,,,,,,,,,,j,1,0.8171,,0,23,23,13,1,An inch can go on forever,j,,,
,,,,,,,,1407,2022-04-06_16h16.41.028,ImplicitInfinitySC-FASTTASK,2021.2.3,MacIntel,59.97361161,,,,space,0.1867,,,,,,,,,,f,1,1.0749,,0,24,24,53,1,Bricks can be put in a container,f,,,
,,,,,,,,1407,2022-04-06_16h16.41.028,ImplicitInfinitySC-FASTTASK,2021.2.3,MacIntel,59.97361161,,,,space,0.1041,,,,,,,,,,j,1,0.8499,,0,25,25,3,1,A minute is endless,j,,,
,,,,,,,,1407,2022-04-06_16h16.41.028,ImplicitInfinitySC-FASTTASK,2021.2.3,MacIntel,59.97361161,,,,space,0.1687,,,,,,,,,,f,1,1.1488,,0,26,26,71,1,Oaks reproduce,f,,,
,,,,,,,,1407,2022-04-06_16h16.41.028,ImplicitInfinitySC-FASTTASK,2021.2.3,MacIntel,59.97361161,,,,space,0.1002,,,,,,,,,,f,1,0.7838,,0,27,27,51,1,Tigers reproduce,f,,,
,,,,,,,,1407,2022-04-06_16h16.41.028,ImplicitInfinitySC-FASTTASK,2021.2.3,MacIntel,59.97361161,,,,space,0.1178,,,,,,,,,,j,0,0.8678,,0,28,28,19,1,Time is endless,f,,,
,,,,,,,,1407,2022-04-06_16h16.41.028,ImplicitInfinitySC-FASTTASK,2021.2.3,MacIntel,59.97361161,,,,space,0.1032,,,,,,,,,,j,1,0.7866,,0,29,29,14,1,An inch cannot always be further divided,j,,,
,,,,,,,,1407,2022-04-06_16h16.41.028,ImplicitInfinitySC-FASTTASK,2021.2.3,MacIntel,59.97361161,,,,space,0.0844,,,,,,,,,,j,1,0.9533,,0,30,30,123,1,Mississippi is a country,j,,,
,,,,,,,,1407,2022-04-06_16h16.41.028,ImplicitInfinitySC-FASTTASK,2021.2.3,MacIntel,59.97361161,,,,space,0.118,,,,,,,,,,f,0,0.8642,,0,31,31,85,1,Thoughts are composed of matter,j,,,
,,,,,,,,1407,2022-04-06_16h16.41.028,ImplicitInfinitySC-FASTTASK,2021.2.3,MacIntel,59.97361161,,,,space,0.1095,,,,,,,,,,f,1,1.0676,,0,32,32,23,1,Time can always be further divided,f,,,
,,,,,,,,1407,2022-04-06_16h16.41.028,ImplicitInfinitySC-FASTTASK,2021.2.3,MacIntel,59.97361161,,,,space,0.1505,,,,,,,,,,f,0,0.7689,,0,33,33,20,1,Time cannot go on forever,j,,,
,,,,,,,,1407,2022-04-06_16h16.41.028,ImplicitInfinitySC-FASTTASK,2021.2.3,MacIntel,59.97361161,,,,space,0.1009,,,,,,,,,,f,1,0.9012,,0,34,34,93,1,Magenta is a color,f,,,
,,,,,,,,1407,2022-04-06_16h16.41.028,ImplicitInfinitySC-FASTTASK,2021.2.3,MacIntel,59.97361161,,,,space,0.1178,,,,,,,,,,f,1,1.1998,,0,35,35,57,1,Rocks have a molecular structure,f,,,
,,,,,,,,1407,2022-04-06_16h16.41.028,ImplicitInfinitySC-FASTTASK,2021.2.3,MacIntel,59.97361161,,,,space,0.1018,,,,,,,,,,j,1,0.8336,,0,36,36,83,1,Songs can be put in a container,j,,,
,,,,,,,,1407,2022-04-06_16h16.41.028,ImplicitInfinitySC-FASTTASK,2021.2.3,MacIntel,59.97361161,,,,space,0.0861,,,,,,,,,,j,1,1.0341,,0,37,37,82,1,Stones reproduce,j,,,
,,,,,,,,1407,2022-04-06_16h16.41.028,ImplicitInfinitySC-FASTTASK,2021.2.3,MacIntel,59.97361161,,,,space,0.1175,,,,,,,,,,f,0,1.2832,,0,38,38,18,1,Time has an end,j,,,
,,,,,,,,1407,2022-04-06_16h16.41.028,ImplicitInfinitySC-FASTTASK,2021.2.3,MacIntel,59.97361161,,,,space,0.1195,,,,,,,,,,f,1,0.7836,,0,39,39,99,1,A motorcycle is a vehicle,f,,,
,,,,,,,,1407,2022-04-06_16h16.41.028,ImplicitInfinitySC-FASTTASK,2021.2.3,MacIntel,59.97361161,,,,space,0.4836,,,,,,,,,,f,1,1.1843,space,0,40,40,17,1,Time is infinite,f,1.4349,,
,,,,,,,,1407,2022-04-06_16h16.41.028,ImplicitInfinitySC-FASTTASK,2021.2.3,MacIntel,59.97361161,,,,space,0.1258,,,,,,,,,,j,0,0.8689,,0,41,41,72,1,Mushrooms reproduce,f,,,
,,,,,,,,1407,2022-04-06_16h16.41.028,ImplicitInfinitySC-FASTTASK,2021.2.3,MacIntel,59.97361161,,,,space,0.0922,,,,,,,,,,f,1,0.8934,,0,42,42,77,1,Saliva has a molecular structure,f,,,
,,,,,,,,1407,2022-04-06_16h16.41.028,ImplicitInfinitySC-FASTTASK,2021.2.3,MacIntel,59.97361161,,,,space,0.1015,,,,,,,,,,f,1,1.0011,,0,43,43,25,1,Space is infinite,f,,,
,,,,,,,,1407,2022-04-06_16h16.41.028,ImplicitInfinitySC-FASTTASK,2021.2.3,MacIntel,59.97361161,,,,space,0.1183,,,,,,,,,,f,1,0.8166,,0,44,44,74,1,Foam is composed of matter,f,,,
,,,,,,,,1407,2022-04-06_16h16.41.028,ImplicitInfinitySC-FASTTASK,2021.2.3,MacIntel,59.97361161,,,,space,0.1179,,,,,,,,,,f,0,0.6185,,0,45,45,113,1,Magenta is a shape,j,,,
,,,,,,,,1407,2022-04-06_16h16.41.028,ImplicitInfinitySC-FASTTASK,2021.2.3,MacIntel,59.97361161,,,,space,0.1178,,,,,,,,,,j,1,0.9853,,0,46,46,117,1,Dolphins cannot swim in the ocean,j,,,
,,,,,,,,1407,2022-04-06_16h16.41.028,ImplicitInfinitySC-FASTTASK,2021.2.3,MacIntel,59.97361161,,,,space,0.1011,,,,,,,,,,j,0,1.1835,,0,47,47,106,1,Humans cannot breathe water,f,,,
,,,,,,,,1407,2022-04-06_16h16.41.028,ImplicitInfinitySC-FASTTASK,2021.2.3,MacIntel,59.97361161,,,,space,0.1015,,,,,,,,,,j,1,0.884,,0,48,48,46,1,The number five cannot always be further divided,j,,,
,,,,,,,,1407,2022-04-06_16h16.41.028,ImplicitInfinitySC-FASTTASK,2021.2.3,MacIntel,59.97361161,,,,space,0.1877,,,,,,,,,,j,0,0.8625,,0,49,49,70,1,Grass needs nutrients,f,,,
,,,,,,,,1407,2022-04-06_16h16.41.028,ImplicitInfinitySC-FASTTASK,2021.2.3,MacIntel,59.97361161,,,,space,0.1173,,,,,,,,,,f,1,0.7352,,0,50,50,98,1,A clock is used to tell time,f,,,
,,,,,,,,1407,2022-04-06_16h16.41.028,ImplicitInfinitySC-FASTTASK,2021.2.3,MacIntel,59.97361161,,,,space,0.1339,,,,,,,,,,f,1,0.7326,,0,51,51,104,1,The United States has a president,f,,,
,,,,,,,,1407,2022-04-06_16h16.41.028,ImplicitInfinitySC-FASTTASK,2021.2.3,MacIntel,59.97361161,,,,space,0.1179,,,,,,,,,,f,1,0.7501,,0,52,52,55,1,Concrete is composed of matter,f,,,
,,,,,,,,1407,2022-04-06_16h16.41.028,ImplicitInfinitySC-FASTTASK,2021.2.3,MacIntel,59.97361161,,,,space,0.1018,,,,,,,,,,f,1,0.8336,,0,53,53,48,1,Crocodiles are alive,f,,,
,,,,,,,,1407,2022-04-06_16h16.41.028,ImplicitInfinitySC-FASTTASK,2021.2.3,MacIntel,59.97361161,,,,space,0.1513,,,,,,,,,,f,1,0.8003,,0,54,54,73,1,Bubbles can be put in a container,f,,,
,,,,,,,,1407,2022-04-06_16h16.41.028,ImplicitInfinitySC-FASTTASK,2021.2.3,MacIntel,59.97361161,,,,space,0.1664,,,,,,,,,,j,1,0.919,,0,55,55,60,1,Robots need nutrients,j,,,
,,,,,,,,1407,2022-04-06_16h16.41.028,ImplicitInfinitySC-FASTTASK,2021.2.3,MacIntel,59.97361161,,,,space,0.1346,,,,,,,,,,j,1,0.9001,,0,56,56,124,1,The president of the United States is Oprah,j,,,
,,,,,,,,1407,2022-04-06_16h16.41.028,ImplicitInfinitySC-FASTTASK,2021.2.3,MacIntel,59.97361161,,,,space,0.1506,,,,,,,,,,j,1,0.8526,,0,57,57,120,1,A truck is an animal,j,,,
,,,,,,,,1407,2022-04-06_16h16.41.028,ImplicitInfinitySC-FASTTASK,2021.2.3,MacIntel,59.97361161,,,,space,0.1172,,,,,,,,,,f,1,0.7009,,0,58,58,89,1,A square is a shape,f,,,
,,,,,,,,1407,2022-04-06_16h16.41.028,ImplicitInfinitySC-FASTTASK,2021.2.3,MacIntel,59.97361161,,,,space,0.0841,,,,,,,,,,f,0,1.0836,,0,59,59,26,1,Space has an end,j,,,
,,,,,,,,1407,2022-04-06_16h16.41.028,ImplicitInfinitySC-FASTTASK,2021.2.3,MacIntel,59.97361161,,,,space,0.0867,,,,,,,,,,f,1,0.6016,,0,60,60,102,1,The Earth is a planet,f,,,
,,,,,,,,1407,2022-04-06_16h16.41.028,ImplicitInfinitySC-FASTTASK,2021.2.3,MacIntel,59.97361161,,,,space,0.1195,,,,,,,,,,f,0,1.0007,,0,61,61,64,1,Echoes are composed of matter,j,,,
,,,,,,,,1407,2022-04-06_16h16.41.028,ImplicitInfinitySC-FASTTASK,2021.2.3,MacIntel,59.97361161,,,,space,0.1187,,,,,,,,,,f,1,0.851,,0,62,62,56,1,Diamonds have a molecular structure,f,,,
,,,,,,,,1407,2022-04-06_16h16.41.028,ImplicitInfinitySC-FASTTASK,2021.2.3,MacIntel,59.97361161,,,,space,0.1172,,,,,,,,,,j,1,0.7339,,0,63,63,110,1,A triangle is an animal,j,,,
,,,,,,,,1407,2022-04-06_16h16.41.028,ImplicitInfinitySC-FASTTASK,2021.2.3,MacIntel,59.97361161,,,,space,1.1181,,,,,,,,,,f,0,0.7167,,0,64,64,121,1,Jupiter is the planet we live on,j,,,
,,,,,,,,1407,2022-04-06_16h16.41.028,ImplicitInfinitySC-FASTTASK,2021.2.3,MacIntel,59.97361161,,,,space,0.1676,,,,,,,,,,j,1,1.119,,0,65,65,126,1,Humans can breathe water,j,,,
,,,,,,,,1407,2022-04-06_16h16.41.028,ImplicitInfinitySC-FASTTASK,2021.2.3,MacIntel,59.97361161,,,,space,0.0851,,,,,,,,,,f,1,1.3149,,0,66,66,90,1,A triangle is not an animal,f,,,
,,,,,,,,1407,2022-04-06_16h16.41.028,ImplicitInfinitySC-FASTTASK,2021.2.3,MacIntel,59.97361161,,,,space,0.104,,,,,,,,,,j,1,0.7499,,0,67,67,78,1,Hammers are alive,j,,,
,,,,,,,,1407,2022-04-06_16h16.41.028,ImplicitInfinitySC-FASTTASK,2021.2.3,MacIntel,59.97361161,,,,space,0.1207,,,,,,,,,,j,1,1.0017,,0,68,68,65,1,Shadows are composed of matter,j,,,
,,,,,,,,1407,2022-04-06_16h16.41.028,ImplicitInfinitySC-FASTTASK,2021.2.3,MacIntel,59.97361161,,,,space,0.1349,,,,,,,,,,j,0,0.7671,,0,69,69,31,1,Space can always be further divided,f,,,
,,,,,,,,1407,2022-04-06_16h16.41.028,ImplicitInfinitySC-FASTTASK,2021.2.3,MacIntel,59.97361161,,,,space,0.1029,,,,,,,,,,j,1,0.8668,,0,70,70,63,1,Color can be put in a container,j,,,
,,,,,,,,1407,2022-04-06_16h16.41.028,ImplicitInfinitySC-FASTTASK,2021.2.3,MacIntel,59.97361161,,,,space,0.133,,,,,,,,,,j,0,0.6503,,0,71,71,10,1,An inch has an end,f,,,
,,,,,,,,1407,2022-04-06_16h16.41.028,ImplicitInfinitySC-FASTTASK,2021.2.3,MacIntel,59.97361161,,,,space,0.096,,,,,,,,,,f,1,1.0317,,0,72,72,54,1,Dumbells are composed of matter,f,,,
,,,,,,,,1407,2022-04-06_16h16.41.028,ImplicitInfinitySC-FASTTASK,2021.2.3,MacIntel,59.97361161,,,,space,0.0839,,,,,,,,,,f,1,0.7995,,0,73,73,49,1,Pelicans are alive,f,,,
,,,,,,,,1407,2022-04-06_16h16.41.028,ImplicitInfinitySC-FASTTASK,2021.2.3,MacIntel,59.97361161,,,,space,0.1343,,,,,,,,,,j,1,0.8847,,0,74,74,111,1,A circle is a flavor,j,,,
,,,,,,,,1407,2022-04-06_16h16.41.028,ImplicitInfinitySC-FASTTASK,2021.2.3,MacIntel,59.97361161,,,,space,0.1199,,,,,,,,,,j,1,0.7118,,0,75,75,127,1,A zebra is used to write,j,,,
,,,,,,,,1407,2022-04-06_16h16.41.028,ImplicitInfinitySC-FASTTASK,2021.2.3,MacIntel,59.97361161,,,,space,0.1177,,,,,,,,,,j,1,1.183,,0,76,76,108,1,This sentence is written in Spanish,j,,,
,,,,,,,,1407,2022-04-06_16h16.41.028,ImplicitInfinitySC-FASTTASK,2021.2.3,MacIntel,59.97361161,,,,space,0.1076,,,,,,,,,,j,1,0.7841,,0,77,77,43,1,The number five is endless,j,,,
,,,,,,,,1407,2022-04-06_16h16.41.028,ImplicitInfinitySC-FASTTASK,2021.2.3,MacIntel,59.97361161,,,,space,0.1008,,,,,,,,,,j,1,0.8687,,0,78,78,116,1,Fish cannot swim in the ocean,j,,,
,,,,,,,,1407,2022-04-06_16h16.41.028,ImplicitInfinitySC-FASTTASK,2021.2.3,MacIntel,59.97361161,,,,space,0.1019,,,,,,,,,,f,1,0.7676,,0,79,79,105,1,There are fifty states in the United States,f,,,
,,,,,,,,1407,2022-04-06_16h16.41.028,ImplicitInfinitySC-FASTTASK,2021.2.3,MacIntel,59.97361161,,,,space,0.102,,,,,,,,,,j,1,0.9834,,0,80,80,61,1,Sailboats reproduce,j,,,
,,,,,,,,1407,2022-04-06_16h16.41.028,ImplicitInfinitySC-FASTTASK,2021.2.3,MacIntel,59.97361161,,,,,,,,,,,,,,,,,,,,,,,,,,,space,7.4458
