INSTRESP.keys,Instrloop.thisRepN,Instrloop.thisTrialN,Instrloop.thisN,Instrloop.thisIndex,Instrloop.ran,FastInstructions,participant,date,expName,psychopyVersion,OS,frameRate,INSTRESP.rt,key_resp_2.keys,key_resp_2.corr,key_resp_2.rt,Advance_Resp.keys,Advance_Resp.rt,Practice.thisRepN,Practice.thisTrialN,Practice.thisN,Practice.thisIndex,Practice.ran,practicetext,practicecorrect,key_resp_3.keys,key_resp_3.rt,key_resp.keys,key_resp.corr,key_resp.rt,encouragekey.keys,FastLoop.thisRepN,FastLoop.thisTrialN,FastLoop.thisN,FastLoop.thisIndex,FastLoop.ran,Statement,Correct,encouragekey.rt,endstudykey.keys,endstudykey.rt
,0,0,0,0,1,"You will be shown a total of 80 statements pertaining to mathematics, science, and social concepts. Your task is to determine whether each statement is true or false as quickly as possible without sacrificing accuracy. Some statements will be difficult and some will be easier.  We do not expect you to know the correct answer for all 80 statements.  Press SPACE to Continue",1432,2022-04-06_17h36.50.994,ImplicitInfinitySC-FASTTASK,2021.2.3,Win32,60.0240096,,,,,,,,,,,,,,,,,,,,,,,,,,,,,
,0,1,1,1,1,"Each statement will appear on your screen for up to 4 seconds and you will have those 4 seconds to decide if it is true or false before the next statement appears. There will be a beep to inform you that you have 2.5 seconds remaining. Please make sure the sound on your computer is turned on. If you do not respond, that answer will be considered incorrect and the task will move on to the next statement. Press SPACE to continue",1432,2022-04-06_17h36.50.994,ImplicitInfinitySC-FASTTASK,2021.2.3,Win32,60.0240096,,,,,,,,,,,,,,,,,,,,,,,,,,,,,
,0,2,2,2,1,"If the statement is true, you will press the “F” key on your keyboard with your left pointer finger; if the statement is false, you will press the “J” key on your keyboard with your right pointer finger. Press SPACE to continue",1432,2022-04-06_17h36.50.994,ImplicitInfinitySC-FASTTASK,2021.2.3,Win32,60.0240096,,,,,,,,,,,,,,,,,,,,,,,,,,,,,
space,0,3,3,3,1,"Prior to completing the study, you will complete 10 practice trials to familiarize yourself with the task. Your performance on these trials will determine your participation in the following study. Press SPACE to continue.",1432,2022-04-06_17h36.50.994,ImplicitInfinitySC-FASTTASK,2021.2.3,Win32,60.0240096,6.318,,,,,,,,,,,,,,,,,,,,,,,,,,,,
space,0,4,4,4,1,"If the statement is true, press the “F” key on your keyboard with your left pointer finger; if the statement is false, press the “J” key on your keyboard with your right pointer finger. Press SPACE to continue",1432,2022-04-06_17h36.50.994,ImplicitInfinitySC-FASTTASK,2021.2.3,Win32,60.0240096,7.323,,,,,,,,,,,,,,,,,,,,,,,,,,,,
,,,,,,,1432,2022-04-06_17h36.50.994,ImplicitInfinitySC-FASTTASK,2021.2.3,Win32,60.0240096,,f,1,1.736,space,1.537,0,0,0,4,1,Humans cannot breathe water,f,,,,,,,,,,,,,,,,
,,,,,,,1432,2022-04-06_17h36.50.994,ImplicitInfinitySC-FASTTASK,2021.2.3,Win32,60.0240096,,f,1,1.318,space,0.857,0,1,1,2,1,Magenta is a color,f,,,,,,,,,,,,,,,,
,,,,,,,1432,2022-04-06_17h36.50.994,ImplicitInfinitySC-FASTTASK,2021.2.3,Win32,60.0240096,,f,0,1.067,space,0.819,0,2,2,7,1,The Earth is a star,j,,,,,,,,,,,,,,,,
,,,,,,,1432,2022-04-06_17h36.50.994,ImplicitInfinitySC-FASTTASK,2021.2.3,Win32,60.0240096,,j,1,1.349,space,0.602,0,3,3,8,1,Mississippi is a country,j,,,,,,,,,,,,,,,,
,,,,,,,1432,2022-04-06_17h36.50.994,ImplicitInfinitySC-FASTTASK,2021.2.3,Win32,60.0240096,,f,1,1.217,space,0.618,0,4,4,0,1,A circle is a shape,f,,,,,,,,,,,,,,,,
,,,,,,,1432,2022-04-06_17h36.50.994,ImplicitInfinitySC-FASTTASK,2021.2.3,Win32,60.0240096,,f,1,1.116,space,0.634,0,5,5,1,1,Dinosaurs are extinct,f,,,,,,,,,,,,,,,,
,,,,,,,1432,2022-04-06_17h36.50.994,ImplicitInfinitySC-FASTTASK,2021.2.3,Win32,60.0240096,,j,1,1.07,space,0.434,0,6,6,5,1,A truck is an animal,j,,,,,,,,,,,,,,,,
,,,,,,,1432,2022-04-06_17h36.50.994,ImplicitInfinitySC-FASTTASK,2021.2.3,Win32,60.0240096,,j,1,1.316,space,0.452,0,7,7,6,1,Jupiter is the planet we live on,j,,,,,,,,,,,,,,,,
,,,,,,,1432,2022-04-06_17h36.50.994,ImplicitInfinitySC-FASTTASK,2021.2.3,Win32,60.0240096,,j,1,1.438,space,0.634,0,8,8,9,1,Humans cannot eat food,j,,,,,,,,,,,,,,,,
,,,,,,,1432,2022-04-06_17h36.50.994,ImplicitInfinitySC-FASTTASK,2021.2.3,Win32,60.0240096,,f,1,1.233,space,0.385,0,9,9,3,1,A clock is used to tell time,f,,,,,,,,,,,,,,,,
,,,,,,,1432,2022-04-06_17h36.50.994,ImplicitInfinitySC-FASTTASK,2021.2.3,Win32,60.0240096,,,,,space,0.837,,,,,,,,space,2.735,f,1,1.683,,0,0,0,17,1,Time is infinite,f,,,
,,,,,,,1432,2022-04-06_17h36.50.994,ImplicitInfinitySC-FASTTASK,2021.2.3,Win32,60.0240096,,,,,space,0.501,,,,,,,,,,j,1,1.17,,0,1,1,61,1,Sailboats reproduce,j,,,
,,,,,,,1432,2022-04-06_17h36.50.994,ImplicitInfinitySC-FASTTASK,2021.2.3,Win32,60.0240096,,,,,space,0.4,,,,,,,,,,j,1,1.182,,0,2,2,45,1,The number five can go on forever,j,,,
,,,,,,,1432,2022-04-06_17h36.50.994,ImplicitInfinitySC-FASTTASK,2021.2.3,Win32,60.0240096,,,,,space,0.319,,,,,,,,,,j,1,1,,0,3,3,58,1,Clocks are alive,j,,,
,,,,,,,1432,2022-04-06_17h36.50.994,ImplicitInfinitySC-FASTTASK,2021.2.3,Win32,60.0240096,,,,,space,0.354,,,,,,,,,,f,1,0.935,,0,4,4,48,1,Crocodiles are alive,f,,,
,,,,,,,1432,2022-04-06_17h36.50.994,ImplicitInfinitySC-FASTTASK,2021.2.3,Win32,60.0240096,,,,,space,0.317,,,,,,,,,,f,1,1.072,,0,5,5,107,1,A pencil is used to write,f,,,
,,,,,,,1432,2022-04-06_17h36.50.994,ImplicitInfinitySC-FASTTASK,2021.2.3,Win32,60.0240096,,,,,space,0.268,,,,,,,,,,f,1,0.889,,0,6,6,68,1,Algae is alive,f,,,
,,,,,,,1432,2022-04-06_17h36.50.994,ImplicitInfinitySC-FASTTASK,2021.2.3,Win32,60.0240096,,,,,space,0.269,,,,,,,,,,j,1,0.888,,0,7,7,115,1,Yellow is an animal,j,,,
,,,,,,,1432,2022-04-06_17h36.50.994,ImplicitInfinitySC-FASTTASK,2021.2.3,Win32,60.0240096,,,,,space,0.284,,,,,,,,,,f,1,1.016,,0,8,8,27,1,Space is endless,f,,,
,,,,,,,1432,2022-04-06_17h36.50.994,ImplicitInfinitySC-FASTTASK,2021.2.3,Win32,60.0240096,,,,,space,0.335,,,,,,,,,,j,1,1.266,,0,9,9,11,1,An inch is endless,j,,,
,,,,,,,1432,2022-04-06_17h36.50.994,ImplicitInfinitySC-FASTTASK,2021.2.3,Win32,60.0240096,,,,,space,0.234,,,,,,,,,,f,1,0.986,,0,10,10,92,1,Dinosaurs are extinct,f,,,
,,,,,,,1432,2022-04-06_17h36.50.994,ImplicitInfinitySC-FASTTASK,2021.2.3,Win32,60.0240096,,,,,space,0.174,,,,,,,,,,j,1,1.216,,0,11,11,113,1,Magenta is a shape,j,,,
,,,,,,,1432,2022-04-06_17h36.50.994,ImplicitInfinitySC-FASTTASK,2021.2.3,Win32,60.0240096,,,,,space,0.251,,,,,,,,,,j,1,1.038,,0,12,12,120,1,A truck is an animal,j,,,
,,,,,,,1432,2022-04-06_17h36.50.994,ImplicitInfinitySC-FASTTASK,2021.2.3,Win32,60.0240096,,,,,space,0.207,,,,,,,,,,j,1,1.051,,0,13,13,123,1,Mississippi is a country,j,,,
,,,,,,,1432,2022-04-06_17h36.50.994,ImplicitInfinitySC-FASTTASK,2021.2.3,Win32,60.0240096,,,,,space,0.201,,,,,,,,,,f,1,1.167,,0,14,14,10,1,An inch has an end,f,,,
,,,,,,,1432,2022-04-06_17h36.50.994,ImplicitInfinitySC-FASTTASK,2021.2.3,Win32,60.0240096,,,,,space,0.185,,,,,,,,,,f,1,1.367,,0,15,15,76,1,Pollen has a molecular structure,f,,,
,,,,,,,1432,2022-04-06_17h36.50.994,ImplicitInfinitySC-FASTTASK,2021.2.3,Win32,60.0240096,,,,,space,0.234,,,,,,,,,,j,1,1.102,,0,16,16,111,1,A circle is a flavor,j,,,
,,,,,,,1432,2022-04-06_17h36.50.994,ImplicitInfinitySC-FASTTASK,2021.2.3,Win32,60.0240096,,,,,space,0.168,,,,,,,,,,f,1,0.967,,0,17,17,29,1,Space can go on forever,f,,,
,,,,,,,1432,2022-04-06_17h36.50.994,ImplicitInfinitySC-FASTTASK,2021.2.3,Win32,60.0240096,,,,,space,0.168,,,,,,,,,,f,1,1.248,,0,18,18,57,1,Rocks have a molecular structure,f,,,
,,,,,,,1432,2022-04-06_17h36.50.994,ImplicitInfinitySC-FASTTASK,2021.2.3,Win32,60.0240096,,,,,space,0.12,,,,,,,,,,f,1,1.365,,0,19,19,55,1,Concrete is composed of matter,f,,,
,,,,,,,1432,2022-04-06_17h36.50.994,ImplicitInfinitySC-FASTTASK,2021.2.3,Win32,60.0240096,,,,,space,0.903,,,,,,,,,,j,1,1.673,,0,20,20,32,1,Numbers are finite,j,,,
,,,,,,,1432,2022-04-06_17h36.50.994,ImplicitInfinitySC-FASTTASK,2021.2.3,Win32,60.0240096,,,,,space,0.15,,,,,,,,,,j,1,1.32,,0,21,21,66,1,Music has a molecular structure,j,,,
,,,,,,,1432,2022-04-06_17h36.50.994,ImplicitInfinitySC-FASTTASK,2021.2.3,Win32,60.0240096,,,,,space,0.168,,,,,,,,,,j,1,1.036,,0,22,22,121,1,Jupiter is the planet we live on,j,,,
,,,,,,,1432,2022-04-06_17h36.50.994,ImplicitInfinitySC-FASTTASK,2021.2.3,Win32,60.0240096,,,,,space,0.123,,,,,,,,,,f,1,1.018,,0,23,23,33,1,Numbers are infinite,f,,,
,,,,,,,1432,2022-04-06_17h36.50.994,ImplicitInfinitySC-FASTTASK,2021.2.3,Win32,60.0240096,,,,,space,0.119,,,,,,,,,,f,1,1.249,,0,24,24,105,1,There are fifty states in the United States,f,,,
,,,,,,,1432,2022-04-06_17h36.50.994,ImplicitInfinitySC-FASTTASK,2021.2.3,Win32,60.0240096,,,,,space,0.141,,,,,,,,,,f,1,0.955,,0,25,25,52,1,Frogs reproduce,f,,,
,,,,,,,1432,2022-04-06_17h36.50.994,ImplicitInfinitySC-FASTTASK,2021.2.3,Win32,60.0240096,,,,,space,0.104,,,,,,,,,,f,1,1.133,,0,26,26,50,1,Turtles need nutrients,f,,,
,,,,,,,1432,2022-04-06_17h36.50.994,ImplicitInfinitySC-FASTTASK,2021.2.3,Win32,60.0240096,,,,,space,0.117,,,,,,,,,,j,1,1.298,,0,27,27,124,1,The president of the United States is Oprah,j,,,
,,,,,,,1432,2022-04-06_17h36.50.994,ImplicitInfinitySC-FASTTASK,2021.2.3,Win32,60.0240096,,,,,space,0.23,,,,,,,,,,j,0,1.358,,0,28,28,4,1,A minute cannot go on forever,f,,,
,,,,,,,1432,2022-04-06_17h36.50.994,ImplicitInfinitySC-FASTTASK,2021.2.3,Win32,60.0240096,,,,,space,0.151,,,,,,,,,,j,1,1.405,,0,29,29,20,1,Time cannot go on forever,j,,,
,,,,,,,1432,2022-04-06_17h36.50.994,ImplicitInfinitySC-FASTTASK,2021.2.3,Win32,60.0240096,,,,,space,0.158,,,,,,,,,,j,1,1.422,,0,30,30,64,1,Echoes are composed of matter,j,,,
,,,,,,,1432,2022-04-06_17h36.50.994,ImplicitInfinitySC-FASTTASK,2021.2.3,Win32,60.0240096,,,,,space,0.168,,,,,,,,,,f,1,0.991,,0,31,31,69,1,Bacteria are alive,f,,,
,,,,,,,1432,2022-04-06_17h36.50.994,ImplicitInfinitySC-FASTTASK,2021.2.3,Win32,60.0240096,,,,,space,0.151,,,,,,,,,,f,1,0.935,,0,32,32,49,1,Pelicans are alive,f,,,
,,,,,,,1432,2022-04-06_17h36.50.994,ImplicitInfinitySC-FASTTASK,2021.2.3,Win32,60.0240096,,,,,space,0.12,,,,,,,,,,j,1,1.044,,0,33,33,87,1,Dreams have a molecular structure,j,,,
,,,,,,,1432,2022-04-06_17h36.50.994,ImplicitInfinitySC-FASTTASK,2021.2.3,Win32,60.0240096,,,,,space,0.101,,,,,,,,,,j,1,1.067,,0,34,34,110,1,A triangle is an animal,j,,,
,,,,,,,1432,2022-04-06_17h36.50.994,ImplicitInfinitySC-FASTTASK,2021.2.3,Win32,60.0240096,,,,,space,0.09,,,,,,,,,,f,1,0.968,,0,35,35,21,1,Time can go on forever,f,,,
,,,,,,,1432,2022-04-06_17h36.50.994,ImplicitInfinitySC-FASTTASK,2021.2.3,Win32,60.0240096,,,,,space,0.134,,,,,,,,,,j,1,1.173,,0,36,36,60,1,Robots need nutrients,j,,,
,,,,,,,1432,2022-04-06_17h36.50.994,ImplicitInfinitySC-FASTTASK,2021.2.3,Win32,60.0240096,,,,,space,0.118,,,,,,,,,,j,1,1.206,,0,37,37,43,1,The number five is endless,j,,,
,,,,,,,1432,2022-04-06_17h36.50.994,ImplicitInfinitySC-FASTTASK,2021.2.3,Win32,60.0240096,,,,,space,0.105,,,,,,,,,,j,1,1.256,,0,38,38,28,1,Space cannot go on forever,j,,,
,,,,,,,1432,2022-04-06_17h36.50.994,ImplicitInfinitySC-FASTTASK,2021.2.3,Win32,60.0240096,,,,,space,0.055,,,,,,,,,,j,1,1.257,,0,39,39,116,1,Fish cannot swim in the ocean,j,,,
,,,,,,,1432,2022-04-06_17h36.50.994,ImplicitInfinitySC-FASTTASK,2021.2.3,Win32,60.0240096,,,,,space,0.938,,,,,,,,,,f,1,0.931,space,0,40,40,37,1,Numbers can go on forever,f,0.919,,
,,,,,,,1432,2022-04-06_17h36.50.994,ImplicitInfinitySC-FASTTASK,2021.2.3,Win32,60.0240096,,,,,space,0.087,,,,,,,,,,f,1,1.29,,0,41,41,0,1,A minute is finite,f,,,
,,,,,,,1432,2022-04-06_17h36.50.994,ImplicitInfinitySC-FASTTASK,2021.2.3,Win32,60.0240096,,,,,space,0.053,,,,,,,,,,j,1,0.968,,0,42,42,109,1,A square is a color,j,,,
,,,,,,,1432,2022-04-06_17h36.50.994,ImplicitInfinitySC-FASTTASK,2021.2.3,Win32,60.0240096,,,,,space,0.023,,,,,,,,,,j,1,1.223,,0,43,43,67,1,Gravity has a molecular structure,j,,,
,,,,,,,1432,2022-04-06_17h36.50.994,ImplicitInfinitySC-FASTTASK,2021.2.3,Win32,60.0240096,,,,,space,0.053,,,,,,,,,,f,1,1.188,,0,44,44,98,1,A clock is used to tell time,f,,,
,,,,,,,1432,2022-04-06_17h36.50.994,ImplicitInfinitySC-FASTTASK,2021.2.3,Win32,60.0240096,,,,,space,0.05,,,,,,,,,,f,1,1.12,,0,45,45,35,1,Numbers are endless,f,,,
,,,,,,,1432,2022-04-06_17h36.50.994,ImplicitInfinitySC-FASTTASK,2021.2.3,Win32,60.0240096,,,,,space,0.035,,,,,,,,,,j,1,1.351,,0,46,46,84,1,Silence is composed of matter,j,,,
,,,,,,,1432,2022-04-06_17h36.50.994,ImplicitInfinitySC-FASTTASK,2021.2.3,Win32,60.0240096,,,,,space,0.037,,,,,,,,,,f,1,1.048,,0,47,47,99,1,A motorcycle is a vehicle,f,,,
,,,,,,,1432,2022-04-06_17h36.50.994,ImplicitInfinitySC-FASTTASK,2021.2.3,Win32,60.0240096,,,,,space,0.019,,,,,,,,,,j,1,1.602,,0,48,48,80,1,Mittens need nutrients,j,,,
,,,,,,,1432,2022-04-06_17h36.50.994,ImplicitInfinitySC-FASTTASK,2021.2.3,Win32,60.0240096,,,,,space,0.05,,,,,,,,,,f,1,1.119,,0,49,49,71,1,Oaks reproduce,f,,,
,,,,,,,1432,2022-04-06_17h36.50.994,ImplicitInfinitySC-FASTTASK,2021.2.3,Win32,60.0240096,,,,,space,0.05,,,,,,,,,,j,1,1.167,,0,50,50,41,1,The number five is infinite,j,,,
,,,,,,,1432,2022-04-06_17h36.50.994,ImplicitInfinitySC-FASTTASK,2021.2.3,Win32,60.0240096,,,,,space,0.054,,,,,,,,,,f,1,1.022,,0,51,51,70,1,Grass needs nutrients,f,,,
,,,,,,,1432,2022-04-06_17h36.50.994,ImplicitInfinitySC-FASTTASK,2021.2.3,Win32,60.0240096,,,,,space,0.023,,,,,,,,,,j,1,1.067,,0,52,52,86,1,Words have a molecular structure,j,,,
,,,,,,,1432,2022-04-06_17h36.50.994,ImplicitInfinitySC-FASTTASK,2021.2.3,Win32,60.0240096,,,,,space,0.018,,,,,,,,,,j,1,1.081,,0,53,53,78,1,Hammers are alive,j,,,
,,,,,,,1432,2022-04-06_17h36.50.994,ImplicitInfinitySC-FASTTASK,2021.2.3,Win32,60.0240096,,,,,space,0.039,,,,,,,,,,j,0,1.423,,0,54,54,12,1,An inch cannot go on forever,f,,,
,,,,,,,1432,2022-04-06_17h36.50.994,ImplicitInfinitySC-FASTTASK,2021.2.3,Win32,60.0240096,,,,,space,0.022,,,,,,,,,,f,1,0.955,,0,55,55,95,1,Yellow is a color,f,,,
,,,,,,,1432,2022-04-06_17h36.50.994,ImplicitInfinitySC-FASTTASK,2021.2.3,Win32,60.0240096,,,,,space,0.091,,,,,,,,,,f,1,1.215,,0,56,56,44,1,The number five cannot go on forever,f,,,
,,,,,,,1432,2022-04-06_17h36.50.994,ImplicitInfinitySC-FASTTASK,2021.2.3,Win32,60.0240096,,,,,space,0.768,,,,,,,,,,j,1,0.955,,0,57,57,79,1,Forks are alive,j,,,
,,,,,,,1432,2022-04-06_17h36.50.994,ImplicitInfinitySC-FASTTASK,2021.2.3,Win32,60.0240096,,,,,space,0.121,,,,,,,,,,j,1,1.184,,0,58,58,5,1,A minute can go on forever,j,,,
,,,,,,,1432,2022-04-06_17h36.50.994,ImplicitInfinitySC-FASTTASK,2021.2.3,Win32,60.0240096,,,,,space,0.056,,,,,,,,,,f,1,1.289,,0,59,59,25,1,Space is infinite,f,,,
,,,,,,,1432,2022-04-06_17h36.50.994,ImplicitInfinitySC-FASTTASK,2021.2.3,Win32,60.0240096,,,,,space,0.067,,,,,,,,,,f,1,0.994,,0,60,60,89,1,A square is a shape,f,,,
,,,,,,,1432,2022-04-06_17h36.50.994,ImplicitInfinitySC-FASTTASK,2021.2.3,Win32,60.0240096,,,,,space,0.002,,,,,,,,,,j,1,1.016,,0,61,61,81,1,Tables reproduce,j,,,
,,,,,,,1432,2022-04-06_17h36.50.994,ImplicitInfinitySC-FASTTASK,2021.2.3,Win32,60.0240096,,,,,space,0.052,,,,,,,,,,j,0,1.3,,0,62,62,75,1,Frost is composed of matter,f,,,
,,,,,,,1432,2022-04-06_17h36.50.994,ImplicitInfinitySC-FASTTASK,2021.2.3,Win32,60.0240096,,,,,space,0.017,,,,,,,,,,j,1,1.036,,0,63,63,119,1,A motorcycle is a person,j,,,
,,,,,,,1432,2022-04-06_17h36.50.994,ImplicitInfinitySC-FASTTASK,2021.2.3,Win32,60.0240096,,,,,space,0.024,,,,,,,,,,f,1,1.033,,0,64,64,2,1,A minute has an end,f,,,
,,,,,,,1432,2022-04-06_17h36.50.994,ImplicitInfinitySC-FASTTASK,2021.2.3,Win32,60.0240096,,,,,space,0.025,,,,,,,,,,f,1,1.3,,0,65,65,104,1,The United States has a president,f,,,
,,,,,,,1432,2022-04-06_17h36.50.994,ImplicitInfinitySC-FASTTASK,2021.2.3,Win32,60.0240096,,,,,space,0.034,,,,,,,,,,f,1,1.233,,0,66,66,8,1,An inch is finite,f,,,
,,,,,,,1432,2022-04-06_17h36.50.994,ImplicitInfinitySC-FASTTASK,2021.2.3,Win32,60.0240096,,,,,space,0.034,,,,,,,,,,f,1,1.451,,0,67,67,94,1,Orange is a color,f,,,
,,,,,,,1432,2022-04-06_17h36.50.994,ImplicitInfinitySC-FASTTASK,2021.2.3,Win32,60.0240096,,,,,space,0.001,,,,,,,,,,f,1,1.918,,0,68,68,39,1,Numbers can always be further divided,f,,,
,,,,,,,1432,2022-04-06_17h36.50.994,ImplicitInfinitySC-FASTTASK,2021.2.3,Win32,60.0240096,,,,,space,0.001,,,,,,,,,,j,1,1.1,,0,69,69,85,1,Thoughts are composed of matter,j,,,
,,,,,,,1432,2022-04-06_17h36.50.994,ImplicitInfinitySC-FASTTASK,2021.2.3,Win32,60.0240096,,,,,space,0.005,,,,,,,,,,j,1,1.651,,0,70,70,38,1,Numbers cannot always be further divided,j,,,
,,,,,,,1432,2022-04-06_17h36.50.994,ImplicitInfinitySC-FASTTASK,2021.2.3,Win32,60.0240096,,,,,space,0.019,,,,,,,,,,j,1,1.248,,0,71,71,46,1,The number five cannot always be further divided,j,,,
,,,,,,,1432,2022-04-06_17h36.50.994,ImplicitInfinitySC-FASTTASK,2021.2.3,Win32,60.0240096,,,,,space,0.001,,,,,,,,,,f,1,1.115,,0,72,72,101,1,Jupiter is in our solar system,f,,,
,,,,,,,1432,2022-04-06_17h36.50.994,ImplicitInfinitySC-FASTTASK,2021.2.3,Win32,60.0240096,,,,,space,0.018,,,,,,,,,,f,1,1,,0,73,73,102,1,The Earth is a planet,f,,,
,,,,,,,1432,2022-04-06_17h36.50.994,ImplicitInfinitySC-FASTTASK,2021.2.3,Win32,60.0240096,,,,,space,0.021,,,,,,,,,,j,1,1.088,,0,74,74,24,1,Space is finite,j,,,
,,,,,,,1432,2022-04-06_17h36.50.994,ImplicitInfinitySC-FASTTASK,2021.2.3,Win32,60.0240096,,,,,space,0.018,,,,,,,,,,j,1,0.95,,0,75,75,59,1,Comets are alive,j,,,
,,,,,,,1432,2022-04-06_17h36.50.994,ImplicitInfinitySC-FASTTASK,2021.2.3,Win32,60.0240096,,,,,space,0.058,,,,,,,,,,f,1,1.213,,0,76,76,23,1,Time can always be further divided,f,,,
,,,,,,,1432,2022-04-06_17h36.50.994,ImplicitInfinitySC-FASTTASK,2021.2.3,Win32,60.0240096,,,,,space,0.017,,,,,,,,,,f,1,1.2,,0,77,77,73,1,Bubbles can be put in a container,f,,,
,,,,,,,1432,2022-04-06_17h36.50.994,ImplicitInfinitySC-FASTTASK,2021.2.3,Win32,60.0240096,,,,,space,0.006,,,,,,,,,,j,1,1.138,,0,78,78,62,1,Helicopters reproduce,j,,,
,,,,,,,1432,2022-04-06_17h36.50.994,ImplicitInfinitySC-FASTTASK,2021.2.3,Win32,60.0240096,,,,,space,0.034,,,,,,,,,,f,1,1.118,,0,79,79,74,1,Foam is composed of matter,f,,,
,,,,,,,1432,2022-04-06_17h36.50.994,ImplicitInfinitySC-FASTTASK,2021.2.3,Win32,60.0240096,,,,,space,0.035,,,,,,,,,,j,1,1.234,,0,80,80,22,1,Time cannot always be further divided,j,,,
,,,,,,,1432,2022-04-06_17h36.50.994,ImplicitInfinitySC-FASTTASK,2021.2.3,Win32,60.0240096,,,,,,,,,,,,,,,,,,,,,,,,,,,,space,23.821
