INSTRESP.keys,INSTRESP.rt,Instrloop.thisRepN,Instrloop.thisTrialN,Instrloop.thisN,Instrloop.thisIndex,Instrloop.ran,FastInstructions,participant,date,expName,psychopyVersion,OS,frameRate,key_resp_2.keys,key_resp_2.corr,key_resp_2.rt,Advance_Resp.keys,Advance_Resp.rt,Practice.thisRepN,Practice.thisTrialN,Practice.thisN,Practice.thisIndex,Practice.ran,practicetext,practicecorrect,key_resp_3.keys,key_resp_3.rt,key_resp.keys,key_resp.corr,key_resp.rt,encouragekey.keys,FastLoop.thisRepN,FastLoop.thisTrialN,FastLoop.thisN,FastLoop.thisIndex,FastLoop.ran,Statement,Correct,encouragekey.rt,endstudykey.keys,endstudykey.rt
space,5.1036,0,0,0,0,1,"You will be shown a total of 80 statements pertaining to mathematics, science, and social concepts. Your task is to determine whether each statement is true or false as quickly as possible without sacrificing accuracy. Some statements will be difficult and some will be easier.  We do not expect you to know the correct answer for all 80 statements.  Press SPACE to Continue",1628,2022-04-06_18h14.11.042,ImplicitInfinitySC-FASTTASK,2021.2.3,Win32,60.03121623,,,,,,,,,,,,,,,,,,,,,,,,,,,,
space,6.2892,0,1,1,1,1,"Each statement will appear on your screen for up to 4 seconds and you will have those 4 seconds to decide if it is true or false before the next statement appears. There will be a beep to inform you that you have 2.5 seconds remaining. Please make sure the sound on your computer is turned on. If you do not respond, that answer will be considered incorrect and the task will move on to the next statement. Press SPACE to continue",1628,2022-04-06_18h14.11.042,ImplicitInfinitySC-FASTTASK,2021.2.3,Win32,60.03121623,,,,,,,,,,,,,,,,,,,,,,,,,,,,
space,3.91,0,2,2,2,1,"If the statement is true, you will press the “F” key on your keyboard with your left pointer finger; if the statement is false, you will press the “J” key on your keyboard with your right pointer finger. Press SPACE to continue",1628,2022-04-06_18h14.11.042,ImplicitInfinitySC-FASTTASK,2021.2.3,Win32,60.03121623,,,,,,,,,,,,,,,,,,,,,,,,,,,,
space,0.9103,0,3,3,3,1,"Prior to completing the study, you will complete 10 practice trials to familiarize yourself with the task. Your performance on these trials will determine your participation in the following study. Press SPACE to continue.",1628,2022-04-06_18h14.11.042,ImplicitInfinitySC-FASTTASK,2021.2.3,Win32,60.03121623,,,,,,,,,,,,,,,,,,,,,,,,,,,,
space,0.2919,0,4,4,4,1,"If the statement is true, press the “F” key on your keyboard with your left pointer finger; if the statement is false, press the “J” key on your keyboard with your right pointer finger. Press SPACE to continue",1628,2022-04-06_18h14.11.042,ImplicitInfinitySC-FASTTASK,2021.2.3,Win32,60.03121623,,,,,,,,,,,,,,,,,,,,,,,,,,,,
,,,,,,,,1628,2022-04-06_18h14.11.042,ImplicitInfinitySC-FASTTASK,2021.2.3,Win32,60.03121623,j,1,1.2884,space,0.7574,0,0,0,6,1,Jupiter is the planet we live on,j,,,,,,,,,,,,,,,,
,,,,,,,,1628,2022-04-06_18h14.11.042,ImplicitInfinitySC-FASTTASK,2021.2.3,Win32,60.03121623,f,1,1.2541,space,0.3073,0,1,1,0,1,A circle is a shape,f,,,,,,,,,,,,,,,,
,,,,,,,,1628,2022-04-06_18h14.11.042,ImplicitInfinitySC-FASTTASK,2021.2.3,Win32,60.03121623,f,1,0.8911,space,0.242,0,2,2,2,1,Magenta is a color,f,,,,,,,,,,,,,,,,
,,,,,,,,1628,2022-04-06_18h14.11.042,ImplicitInfinitySC-FASTTASK,2021.2.3,Win32,60.03121623,j,1,0.807,space,0.1916,0,3,3,5,1,A truck is an animal,j,,,,,,,,,,,,,,,,
,,,,,,,,1628,2022-04-06_18h14.11.042,ImplicitInfinitySC-FASTTASK,2021.2.3,Win32,60.03121623,f,1,1.5176,space,0.1794,0,4,4,4,1,Humans cannot breathe water,f,,,,,,,,,,,,,,,,
,,,,,,,,1628,2022-04-06_18h14.11.042,ImplicitInfinitySC-FASTTASK,2021.2.3,Win32,60.03121623,f,0,1.609,space,0.522,0,5,5,7,1,The Earth is a star,j,,,,,,,,,,,,,,,,
,,,,,,,,1628,2022-04-06_18h14.11.042,ImplicitInfinitySC-FASTTASK,2021.2.3,Win32,60.03121623,f,1,1.1755,space,0.2445,0,6,6,3,1,A clock is used to tell time,f,,,,,,,,,,,,,,,,
,,,,,,,,1628,2022-04-06_18h14.11.042,ImplicitInfinitySC-FASTTASK,2021.2.3,Win32,60.03121623,j,1,1.1059,space,0.2588,0,7,7,9,1,Humans cannot eat food,j,,,,,,,,,,,,,,,,
,,,,,,,,1628,2022-04-06_18h14.11.042,ImplicitInfinitySC-FASTTASK,2021.2.3,Win32,60.03121623,j,1,0.8796,space,0.1889,0,8,8,8,1,Mississippi is a country,j,,,,,,,,,,,,,,,,
,,,,,,,,1628,2022-04-06_18h14.11.042,ImplicitInfinitySC-FASTTASK,2021.2.3,Win32,60.03121623,f,1,1.156,space,0.2098,0,9,9,1,1,Dinosaurs are extinct,f,,,,,,,,,,,,,,,,
,,,,,,,,1628,2022-04-06_18h14.11.042,ImplicitInfinitySC-FASTTASK,2021.2.3,Win32,60.03121623,,,,space,0.7391,,,,,,,,space,0.2432,j,1,1.3558,,0,0,0,13,1,An inch can go on forever,j,,,
,,,,,,,,1628,2022-04-06_18h14.11.042,ImplicitInfinitySC-FASTTASK,2021.2.3,Win32,60.03121623,,,,space,0.3109,,,,,,,,,,f,1,0.6931,,0,1,1,95,1,Yellow is a color,f,,,
,,,,,,,,1628,2022-04-06_18h14.11.042,ImplicitInfinitySC-FASTTASK,2021.2.3,Win32,60.03121623,,,,space,0.2415,,,,,,,,,,j,1,0.6734,,0,2,2,120,1,A truck is an animal,j,,,
,,,,,,,,1628,2022-04-06_18h14.11.042,ImplicitInfinitySC-FASTTASK,2021.2.3,Win32,60.03121623,,,,space,0.1742,,,,,,,,,,j,1,0.9096,,0,3,3,111,1,A circle is a flavor,j,,,
,,,,,,,,1628,2022-04-06_18h14.11.042,ImplicitInfinitySC-FASTTASK,2021.2.3,Win32,60.03121623,,,,space,0.2559,,,,,,,,,,f,1,1.4112,,0,4,4,75,1,Frost is composed of matter,f,,,
,,,,,,,,1628,2022-04-06_18h14.11.042,ImplicitInfinitySC-FASTTASK,2021.2.3,Win32,60.03121623,,,,space,0.2431,,,,,,,,,,f,1,0.5899,,0,5,5,93,1,Magenta is a color,f,,,
,,,,,,,,1628,2022-04-06_18h14.11.042,ImplicitInfinitySC-FASTTASK,2021.2.3,Win32,60.03121623,,,,space,0.6577,,,,,,,,,,f,0,0.9741,,0,6,6,65,1,Shadows are composed of matter,j,,,
,,,,,,,,1628,2022-04-06_18h14.11.042,ImplicitInfinitySC-FASTTASK,2021.2.3,Win32,60.03121623,,,,space,0.3519,,,,,,,,,,j,1,2.0164,,0,7,7,22,1,Time cannot always be further divided,j,,,
,,,,,,,,1628,2022-04-06_18h14.11.042,ImplicitInfinitySC-FASTTASK,2021.2.3,Win32,60.03121623,,,,space,0.1918,,,,,,,,,,f,1,0.9441,,0,8,8,89,1,A square is a shape,f,,,
,,,,,,,,1628,2022-04-06_18h14.11.042,ImplicitInfinitySC-FASTTASK,2021.2.3,Win32,60.03121623,,,,space,0.1529,,,,,,,,,,f,1,1.1942,,0,9,9,57,1,Rocks have a molecular structure,f,,,
,,,,,,,,1628,2022-04-06_18h14.11.042,ImplicitInfinitySC-FASTTASK,2021.2.3,Win32,60.03121623,,,,space,0.3415,,,,,,,,,,f,1,1.1386,,0,10,10,72,1,Mushrooms reproduce,f,,,
,,,,,,,,1628,2022-04-06_18h14.11.042,ImplicitInfinitySC-FASTTASK,2021.2.3,Win32,60.03121623,,,,space,0.2143,,,,,,,,,,j,1,1.0109,,0,11,11,18,1,Time has an end,j,,,
,,,,,,,,1628,2022-04-06_18h14.11.042,ImplicitInfinitySC-FASTTASK,2021.2.3,Win32,60.03121623,,,,space,0.1911,,,,,,,,,,j,1,1.1916,,0,12,12,63,1,Color can be put in a container,j,,,
,,,,,,,,1628,2022-04-06_18h14.11.042,ImplicitInfinitySC-FASTTASK,2021.2.3,Win32,60.03121623,,,,space,0.2288,,,,,,,,,,j,1,0.9098,,0,13,13,118,1,A horse is used to tell time,j,,,
,,,,,,,,1628,2022-04-06_18h14.11.042,ImplicitInfinitySC-FASTTASK,2021.2.3,Win32,60.03121623,,,,space,0.2288,,,,,,,,,,j,1,0.8068,,0,14,14,61,1,Sailboats reproduce,j,,,
,,,,,,,,1628,2022-04-06_18h14.11.042,ImplicitInfinitySC-FASTTASK,2021.2.3,Win32,60.03121623,,,,space,0.1581,,,,,,,,,,j,1,0.8931,,0,15,15,108,1,This sentence is written in Spanish,j,,,
,,,,,,,,1628,2022-04-06_18h14.11.042,ImplicitInfinitySC-FASTTASK,2021.2.3,Win32,60.03121623,,,,space,0.1917,,,,,,,,,,j,1,0.877,,0,16,16,59,1,Comets are alive,j,,,
,,,,,,,,1628,2022-04-06_18h14.11.042,ImplicitInfinitySC-FASTTASK,2021.2.3,Win32,60.03121623,,,,space,0.192,,,,,,,,,,f,1,1.1241,,0,17,17,0,1,A minute is finite,f,,,
,,,,,,,,1628,2022-04-06_18h14.11.042,ImplicitInfinitySC-FASTTASK,2021.2.3,Win32,60.03121623,,,,space,0.1749,,,,,,,,,,j,1,0.8065,,0,18,18,109,1,A square is a color,j,,,
,,,,,,,,1628,2022-04-06_18h14.11.042,ImplicitInfinitySC-FASTTASK,2021.2.3,Win32,60.03121623,,,,space,0.2249,,,,,,,,,,f,1,0.9239,,0,19,19,71,1,Oaks reproduce,f,,,
,,,,,,,,1628,2022-04-06_18h14.11.042,ImplicitInfinitySC-FASTTASK,2021.2.3,Win32,60.03121623,,,,space,0.2109,,,,,,,,,,f,1,0.9242,,0,20,20,106,1,Humans cannot breathe water,f,,,
,,,,,,,,1628,2022-04-06_18h14.11.042,ImplicitInfinitySC-FASTTASK,2021.2.3,Win32,60.03121623,,,,space,0.304,,,,,,,,,,f,0,1.2326,,0,21,21,20,1,Time cannot go on forever,j,,,
,,,,,,,,1628,2022-04-06_18h14.11.042,ImplicitInfinitySC-FASTTASK,2021.2.3,Win32,60.03121623,,,,space,0.2277,,,,,,,,,,j,1,1.1067,,0,22,22,1,1,A minute is infinite,j,,,
,,,,,,,,1628,2022-04-06_18h14.11.042,ImplicitInfinitySC-FASTTASK,2021.2.3,Win32,60.03121623,,,,space,0.1907,,,,,,,,,,f,1,0.7424,,0,23,23,92,1,Dinosaurs are extinct,f,,,
,,,,,,,,1628,2022-04-06_18h14.11.042,ImplicitInfinitySC-FASTTASK,2021.2.3,Win32,60.03121623,,,,space,0.1932,,,,,,,,,,f,1,0.741,,0,24,24,91,1,A circle is a shape,f,,,
,,,,,,,,1628,2022-04-06_18h14.11.042,ImplicitInfinitySC-FASTTASK,2021.2.3,Win32,60.03121623,,,,space,0.1432,,,,,,,,,,j,1,1.0411,,0,25,25,5,1,A minute can go on forever,j,,,
,,,,,,,,1628,2022-04-06_18h14.11.042,ImplicitInfinitySC-FASTTASK,2021.2.3,Win32,60.03121623,,,,space,0.1546,,,,,,,,,,j,1,0.7014,,0,26,26,112,1,Dinosaurs are not extinct,j,,,
,,,,,,,,1628,2022-04-06_18h14.11.042,ImplicitInfinitySC-FASTTASK,2021.2.3,Win32,60.03121623,,,,space,0.2434,,,,,,,,,,f,1,0.994,,0,27,27,68,1,Algae is alive,f,,,
,,,,,,,,1628,2022-04-06_18h14.11.042,ImplicitInfinitySC-FASTTASK,2021.2.3,Win32,60.03121623,,,,space,0.1929,,,,,,,,,,f,1,1.4904,,0,28,28,101,1,Jupiter is in our solar system,f,,,
,,,,,,,,1628,2022-04-06_18h14.11.042,ImplicitInfinitySC-FASTTASK,2021.2.3,Win32,60.03121623,,,,space,0.1854,,,,,,,,,,f,1,2.4529,,0,29,29,96,1,Fish can swim in the ocean,f,,,
,,,,,,,,1628,2022-04-06_18h14.11.042,ImplicitInfinitySC-FASTTASK,2021.2.3,Win32,60.03121623,,,,space,0.1623,,,,,,,,,,j,1,0.9629,,0,30,30,11,1,An inch is endless,j,,,
,,,,,,,,1628,2022-04-06_18h14.11.042,ImplicitInfinitySC-FASTTASK,2021.2.3,Win32,60.03121623,,,,space,0.2499,,,,,,,,,,j,0,2.3702,,0,31,31,37,1,Numbers can go on forever,f,,,
,,,,,,,,1628,2022-04-06_18h14.11.042,ImplicitInfinitySC-FASTTASK,2021.2.3,Win32,60.03121623,,,,space,0.2074,,,,,,,,,,j,1,1.7297,,0,32,32,38,1,Numbers cannot always be further divided,j,,,
,,,,,,,,1628,2022-04-06_18h14.11.042,ImplicitInfinitySC-FASTTASK,2021.2.3,Win32,60.03121623,,,,space,0.1417,,,,,,,,,,j,1,1.0021,,0,33,33,86,1,Words have a molecular structure,j,,,
,,,,,,,,1628,2022-04-06_18h14.11.042,ImplicitInfinitySC-FASTTASK,2021.2.3,Win32,60.03121623,,,,space,0.6306,,,,,,,,,,,0,,,0,34,34,30,1,Space cannot always be further divided,j,,,
,,,,,,,,1628,2022-04-06_18h14.11.042,ImplicitInfinitySC-FASTTASK,2021.2.3,Win32,60.03121623,,,,space,0.1552,,,,,,,,,,j,1,0.9278,,0,35,35,114,1,Lightbulbs are made of clay,j,,,
,,,,,,,,1628,2022-04-06_18h14.11.042,ImplicitInfinitySC-FASTTASK,2021.2.3,Win32,60.03121623,,,,space,0.1453,,,,,,,,,,j,1,0.8699,,0,36,36,80,1,Mittens need nutrients,j,,,
,,,,,,,,1628,2022-04-06_18h14.11.042,ImplicitInfinitySC-FASTTASK,2021.2.3,Win32,60.03121623,,,,space,0.1941,,,,,,,,,,j,1,1.0185,,0,37,37,43,1,The number five is endless,j,,,
,,,,,,,,1628,2022-04-06_18h14.11.042,ImplicitInfinitySC-FASTTASK,2021.2.3,Win32,60.03121623,,,,space,0.3271,,,,,,,,,,f,1,1.9236,,0,38,38,53,1,Bricks can be put in a container,f,,,
,,,,,,,,1628,2022-04-06_18h14.11.042,ImplicitInfinitySC-FASTTASK,2021.2.3,Win32,60.03121623,,,,space,0.1955,,,,,,,,,,f,1,1.4883,,0,39,39,39,1,Numbers can always be further divided,f,,,
,,,,,,,,1628,2022-04-06_18h14.11.042,ImplicitInfinitySC-FASTTASK,2021.2.3,Win32,60.03121623,,,,space,0.4431,,,,,,,,,,f,1,0.9777,space,0,40,40,40,1,The number five is finite,f,1.0187,,
,,,,,,,,1628,2022-04-06_18h14.11.042,ImplicitInfinitySC-FASTTASK,2021.2.3,Win32,60.03121623,,,,space,0.2132,,,,,,,,,,j,1,0.7173,,0,41,41,115,1,Yellow is an animal,j,,,
,,,,,,,,1628,2022-04-06_18h14.11.042,ImplicitInfinitySC-FASTTASK,2021.2.3,Win32,60.03121623,,,,space,0.49,,,,,,,,,,j,0,1.6772,,0,42,42,2,1,A minute has an end,f,,,
,,,,,,,,1628,2022-04-06_18h14.11.042,ImplicitInfinitySC-FASTTASK,2021.2.3,Win32,60.03121623,,,,space,0.1863,,,,,,,,,,j,0,0.9498,,0,43,43,17,1,Time is infinite,f,,,
,,,,,,,,1628,2022-04-06_18h14.11.042,ImplicitInfinitySC-FASTTASK,2021.2.3,Win32,60.03121623,,,,space,0.8365,,,,,,,,,,j,1,1.644,,0,44,44,45,1,The number five can go on forever,j,,,
,,,,,,,,1628,2022-04-06_18h14.11.042,ImplicitInfinitySC-FASTTASK,2021.2.3,Win32,60.03121623,,,,space,0.2146,,,,,,,,,,j,1,1.0671,,0,45,45,87,1,Dreams have a molecular structure,j,,,
,,,,,,,,1628,2022-04-06_18h14.11.042,ImplicitInfinitySC-FASTTASK,2021.2.3,Win32,60.03121623,,,,space,0.1803,,,,,,,,,,f,1,0.7253,,0,46,46,25,1,Space is infinite,f,,,
,,,,,,,,1628,2022-04-06_18h14.11.042,ImplicitInfinitySC-FASTTASK,2021.2.3,Win32,60.03121623,,,,space,0.1745,,,,,,,,,,f,1,0.9624,,0,47,47,102,1,The Earth is a planet,f,,,
,,,,,,,,1628,2022-04-06_18h14.11.042,ImplicitInfinitySC-FASTTASK,2021.2.3,Win32,60.03121623,,,,space,0.1747,,,,,,,,,,j,1,1.1332,,0,48,48,83,1,Songs can be put in a container,j,,,
,,,,,,,,1628,2022-04-06_18h14.11.042,ImplicitInfinitySC-FASTTASK,2021.2.3,Win32,60.03121623,,,,space,0.1771,,,,,,,,,,f,1,0.6691,,0,49,49,69,1,Bacteria are alive,f,,,
,,,,,,,,1628,2022-04-06_18h14.11.042,ImplicitInfinitySC-FASTTASK,2021.2.3,Win32,60.03121623,,,,space,0.1531,,,,,,,,,,f,1,0.5649,,0,50,50,52,1,Frogs reproduce,f,,,
,,,,,,,,1628,2022-04-06_18h14.11.042,ImplicitInfinitySC-FASTTASK,2021.2.3,Win32,60.03121623,,,,space,0.1491,,,,,,,,,,j,1,1.0534,,0,51,51,64,1,Echoes are composed of matter,j,,,
,,,,,,,,1628,2022-04-06_18h14.11.042,ImplicitInfinitySC-FASTTASK,2021.2.3,Win32,60.03121623,,,,space,0.1841,,,,,,,,,,j,0,1.2356,,0,52,52,44,1,The number five cannot go on forever,f,,,
,,,,,,,,1628,2022-04-06_18h14.11.042,ImplicitInfinitySC-FASTTASK,2021.2.3,Win32,60.03121623,,,,space,0.2271,,,,,,,,,,j,1,1.5741,,0,53,53,36,1,Numbers cannot go on forever,j,,,
,,,,,,,,1628,2022-04-06_18h14.11.042,ImplicitInfinitySC-FASTTASK,2021.2.3,Win32,60.03121623,,,,space,0.1226,,,,,,,,,,j,1,1.4306,,0,54,54,46,1,The number five cannot always be further divided,j,,,
,,,,,,,,1628,2022-04-06_18h14.11.042,ImplicitInfinitySC-FASTTASK,2021.2.3,Win32,60.03121623,,,,space,0.1689,,,,,,,,,,j,1,1.4539,,0,55,55,28,1,Space cannot go on forever,j,,,
,,,,,,,,1628,2022-04-06_18h14.11.042,ImplicitInfinitySC-FASTTASK,2021.2.3,Win32,60.03121623,,,,space,0.1259,,,,,,,,,,j,1,1.2126,,0,56,56,85,1,Thoughts are composed of matter,j,,,
,,,,,,,,1628,2022-04-06_18h14.11.042,ImplicitInfinitySC-FASTTASK,2021.2.3,Win32,60.03121623,,,,space,0.2057,,,,,,,,,,f,1,1.3679,,0,57,57,76,1,Pollen has a molecular structure,f,,,
,,,,,,,,1628,2022-04-06_18h14.11.042,ImplicitInfinitySC-FASTTASK,2021.2.3,Win32,60.03121623,,,,space,0.1613,,,,,,,,,,j,1,0.9779,,0,58,58,126,1,Humans can breathe water,j,,,
,,,,,,,,1628,2022-04-06_18h14.11.042,ImplicitInfinitySC-FASTTASK,2021.2.3,Win32,60.03121623,,,,space,0.1584,,,,,,,,,,f,1,0.6693,,0,59,59,98,1,A clock is used to tell time,f,,,
,,,,,,,,1628,2022-04-06_18h14.11.042,ImplicitInfinitySC-FASTTASK,2021.2.3,Win32,60.03121623,,,,space,0.2149,,,,,,,,,,f,1,0.8919,,0,60,60,55,1,Concrete is composed of matter,f,,,
,,,,,,,,1628,2022-04-06_18h14.11.042,ImplicitInfinitySC-FASTTASK,2021.2.3,Win32,60.03121623,,,,space,0.1783,,,,,,,,,,f,1,0.899,,0,61,61,54,1,Dumbells are composed of matter,f,,,
,,,,,,,,1628,2022-04-06_18h14.11.042,ImplicitInfinitySC-FASTTASK,2021.2.3,Win32,60.03121623,,,,space,0.2218,,,,,,,,,,f,1,0.8823,,0,62,62,8,1,An inch is finite,f,,,
,,,,,,,,1628,2022-04-06_18h14.11.042,ImplicitInfinitySC-FASTTASK,2021.2.3,Win32,60.03121623,,,,space,0.1413,,,,,,,,,,j,1,0.9261,,0,63,63,84,1,Silence is composed of matter,j,,,
,,,,,,,,1628,2022-04-06_18h14.11.042,ImplicitInfinitySC-FASTTASK,2021.2.3,Win32,60.03121623,,,,space,0.2031,,,,,,,,,,j,1,1.8622,,0,64,64,14,1,An inch cannot always be further divided,j,,,
,,,,,,,,1628,2022-04-06_18h14.11.042,ImplicitInfinitySC-FASTTASK,2021.2.3,Win32,60.03121623,,,,space,0.1345,,,,,,,,,,j,1,1.379,,0,65,65,116,1,Fish cannot swim in the ocean,j,,,
,,,,,,,,1628,2022-04-06_18h14.11.042,ImplicitInfinitySC-FASTTASK,2021.2.3,Win32,60.03121623,,,,space,0.1954,,,,,,,,,,f,1,0.7785,,0,66,66,88,1,This sentence is written in English,f,,,
,,,,,,,,1628,2022-04-06_18h14.11.042,ImplicitInfinitySC-FASTTASK,2021.2.3,Win32,60.03121623,,,,space,0.7086,,,,,,,,,,f,1,2.2582,,0,67,67,107,1,A pencil is used to write,f,,,
,,,,,,,,1628,2022-04-06_18h14.11.042,ImplicitInfinitySC-FASTTASK,2021.2.3,Win32,60.03121623,,,,space,0.6918,,,,,,,,,,f,0,1.4535,,0,68,68,122,1,The Earth is a star,j,,,
,,,,,,,,1628,2022-04-06_18h14.11.042,ImplicitInfinitySC-FASTTASK,2021.2.3,Win32,60.03121623,,,,space,0.2847,,,,,,,,,,f,1,0.8587,,0,69,69,103,1,The United States is a country,f,,,
,,,,,,,,1628,2022-04-06_18h14.11.042,ImplicitInfinitySC-FASTTASK,2021.2.3,Win32,60.03121623,,,,space,0.5948,,,,,,,,,,f,1,0.9702,,0,70,70,56,1,Diamonds have a molecular structure,f,,,
,,,,,,,,1628,2022-04-06_18h14.11.042,ImplicitInfinitySC-FASTTASK,2021.2.3,Win32,60.03121623,,,,space,0.199,,,,,,,,,,f,1,0.9644,,0,71,71,19,1,Time is endless,f,,,
,,,,,,,,1628,2022-04-06_18h14.11.042,ImplicitInfinitySC-FASTTASK,2021.2.3,Win32,60.03121623,,,,space,0.1802,,,,,,,,,,f,1,0.9863,,0,72,72,42,1,The number five has an end,f,,,
,,,,,,,,1628,2022-04-06_18h14.11.042,ImplicitInfinitySC-FASTTASK,2021.2.3,Win32,60.03121623,,,,space,0.1186,,,,,,,,,,f,1,0.6449,,0,73,73,94,1,Orange is a color,f,,,
,,,,,,,,1628,2022-04-06_18h14.11.042,ImplicitInfinitySC-FASTTASK,2021.2.3,Win32,60.03121623,,,,space,0.1224,,,,,,,,,,f,1,0.87,,0,74,74,104,1,The United States has a president,f,,,
,,,,,,,,1628,2022-04-06_18h14.11.042,ImplicitInfinitySC-FASTTASK,2021.2.3,Win32,60.03121623,,,,space,0.158,,,,,,,,,,j,1,1.0701,,0,75,75,127,1,A zebra is used to write,j,,,
,,,,,,,,1628,2022-04-06_18h14.11.042,ImplicitInfinitySC-FASTTASK,2021.2.3,Win32,60.03121623,,,,space,0.2437,,,,,,,,,,j,1,0.7936,,0,76,76,62,1,Helicopters reproduce,j,,,
,,,,,,,,1628,2022-04-06_18h14.11.042,ImplicitInfinitySC-FASTTASK,2021.2.3,Win32,60.03121623,,,,space,0.222,,,,,,,,,,j,1,1.7276,,0,77,77,6,1,A minute cannot always be further divided,j,,,
,,,,,,,,1628,2022-04-06_18h14.11.042,ImplicitInfinitySC-FASTTASK,2021.2.3,Win32,60.03121623,,,,space,0.1494,,,,,,,,,,j,1,1.0014,,0,78,78,123,1,Mississippi is a country,j,,,
,,,,,,,,1628,2022-04-06_18h14.11.042,ImplicitInfinitySC-FASTTASK,2021.2.3,Win32,60.03121623,,,,space,0.6467,,,,,,,,,,f,0,0.5824,,0,79,79,113,1,Magenta is a shape,j,,,
,,,,,,,,1628,2022-04-06_18h14.11.042,ImplicitInfinitySC-FASTTASK,2021.2.3,Win32,60.03121623,,,,space,0.1614,,,,,,,,,,j,1,1.4857,,0,80,80,41,1,The number five is infinite,j,,,
,,,,,,,,1628,2022-04-06_18h14.11.042,ImplicitInfinitySC-FASTTASK,2021.2.3,Win32,60.03121623,,,,,,,,,,,,,,,,,,,,,,,,,,,space,17.2963
