INSTRESP.keys,INSTRESP.rt,Instrloop.thisRepN,Instrloop.thisTrialN,Instrloop.thisN,Instrloop.thisIndex,Instrloop.ran,FastInstructions,participant,date,expName,psychopyVersion,OS,frameRate,key_resp_2.keys,key_resp_2.corr,key_resp_2.rt,Advance_Resp.keys,Advance_Resp.rt,Practice.thisRepN,Practice.thisTrialN,Practice.thisN,Practice.thisIndex,Practice.ran,practicetext,practicecorrect,key_resp_3.keys,key_resp_3.rt,key_resp.keys,key_resp.corr,key_resp.rt,encouragekey.keys,FastLoop.thisRepN,FastLoop.thisTrialN,FastLoop.thisN,FastLoop.thisIndex,FastLoop.ran,Statement,Correct,encouragekey.rt,endstudykey.keys,endstudykey.rt
space,19.5699,0,0,0,0,1,"You will be shown a total of 80 statements pertaining to mathematics, science, and social concepts. Your task is to determine whether each statement is true or false as quickly as possible without sacrificing accuracy. Some statements will be difficult and some will be easier.  We do not expect you to know the correct answer for all 80 statements.  Press SPACE to Continue",1845,2022-04-06_19h08.59.962,ImplicitInfinitySC-FASTTASK,2021.2.3,Win32,59.88741167,,,,,,,,,,,,,,,,,,,,,,,,,,,,
space,3.5197,0,1,1,1,1,"Each statement will appear on your screen for up to 4 seconds and you will have those 4 seconds to decide if it is true or false before the next statement appears. There will be a beep to inform you that you have 2.5 seconds remaining. Please make sure the sound on your computer is turned on. If you do not respond, that answer will be considered incorrect and the task will move on to the next statement. Press SPACE to continue",1845,2022-04-06_19h08.59.962,ImplicitInfinitySC-FASTTASK,2021.2.3,Win32,59.88741167,,,,,,,,,,,,,,,,,,,,,,,,,,,,
space,16.2746,0,2,2,2,1,"If the statement is true, you will press the “F” key on your keyboard with your left pointer finger; if the statement is false, you will press the “J” key on your keyboard with your right pointer finger. Press SPACE to continue",1845,2022-04-06_19h08.59.962,ImplicitInfinitySC-FASTTASK,2021.2.3,Win32,59.88741167,,,,,,,,,,,,,,,,,,,,,,,,,,,,
space,15.9581,0,3,3,3,1,"Prior to completing the study, you will complete 10 practice trials to familiarize yourself with the task. Your performance on these trials will determine your participation in the following study. Press SPACE to continue.",1845,2022-04-06_19h08.59.962,ImplicitInfinitySC-FASTTASK,2021.2.3,Win32,59.88741167,,,,,,,,,,,,,,,,,,,,,,,,,,,,
space,8.2356,0,4,4,4,1,"If the statement is true, press the “F” key on your keyboard with your left pointer finger; if the statement is false, press the “J” key on your keyboard with your right pointer finger. Press SPACE to continue",1845,2022-04-06_19h08.59.962,ImplicitInfinitySC-FASTTASK,2021.2.3,Win32,59.88741167,,,,,,,,,,,,,,,,,,,,,,,,,,,,
,,,,,,,,1845,2022-04-06_19h08.59.962,ImplicitInfinitySC-FASTTASK,2021.2.3,Win32,59.88741167,j,1,2.4772,space,1.9449,0,0,0,7,1,The Earth is a star,j,,,,,,,,,,,,,,,,
,,,,,,,,1845,2022-04-06_19h08.59.962,ImplicitInfinitySC-FASTTASK,2021.2.3,Win32,59.88741167,j,1,1.8323,space,2.6037,0,1,1,8,1,Mississippi is a country,j,,,,,,,,,,,,,,,,
,,,,,,,,1845,2022-04-06_19h08.59.962,ImplicitInfinitySC-FASTTASK,2021.2.3,Win32,59.88741167,f,1,1.5865,space,1.8004,0,2,2,2,1,Magenta is a color,f,,,,,,,,,,,,,,,,
,,,,,,,,1845,2022-04-06_19h08.59.962,ImplicitInfinitySC-FASTTASK,2021.2.3,Win32,59.88741167,f,0,1.2665,space,2.157,0,3,3,6,1,Jupiter is the planet we live on,j,,,,,,,,,,,,,,,,
,,,,,,,,1845,2022-04-06_19h08.59.962,ImplicitInfinitySC-FASTTASK,2021.2.3,Win32,59.88741167,j,0,1.0742,space,2.0185,0,4,4,1,1,Dinosaurs are extinct,f,,,,,,,,,,,,,,,,
,,,,,,,,1845,2022-04-06_19h08.59.962,ImplicitInfinitySC-FASTTASK,2021.2.3,Win32,59.88741167,f,1,1.7505,space,1.8697,0,5,5,3,1,A clock is used to tell time,f,,,,,,,,,,,,,,,,
,,,,,,,,1845,2022-04-06_19h08.59.962,ImplicitInfinitySC-FASTTASK,2021.2.3,Win32,59.88741167,j,0,1.5711,space,3.3918,0,6,6,4,1,Humans cannot breathe water,f,,,,,,,,,,,,,,,,
,,,,,,,,1845,2022-04-06_19h08.59.962,ImplicitInfinitySC-FASTTASK,2021.2.3,Win32,59.88741167,j,1,1.5647,space,3.2584,0,7,7,5,1,A truck is an animal,j,,,,,,,,,,,,,,,,
,,,,,,,,1845,2022-04-06_19h08.59.962,ImplicitInfinitySC-FASTTASK,2021.2.3,Win32,59.88741167,f,0,1.0825,space,2.5707,0,8,8,9,1,Humans cannot eat food,j,,,,,,,,,,,,,,,,
,,,,,,,,1845,2022-04-06_19h08.59.962,ImplicitInfinitySC-FASTTASK,2021.2.3,Win32,59.88741167,f,1,1.4005,space,0.9214,0,9,9,0,1,A circle is a shape,f,,,,,,,,,,,,,,,,
,,,,,,,,1845,2022-04-06_19h08.59.962,ImplicitInfinitySC-FASTTASK,2021.2.3,Win32,59.88741167,,,,space,1.4695,,,,,,,,space,5.7717,j,1,2.6519,,0,0,0,81,1,Tables reproduce,j,,,
,,,,,,,,1845,2022-04-06_19h08.59.962,ImplicitInfinitySC-FASTTASK,2021.2.3,Win32,59.88741167,,,,space,1.1338,,,,,,,,,,j,1,1.7184,,0,1,1,66,1,Music has a molecular structure,j,,,
,,,,,,,,1845,2022-04-06_19h08.59.962,ImplicitInfinitySC-FASTTASK,2021.2.3,Win32,59.88741167,,,,space,2.0268,,,,,,,,,,j,1,1.6222,,0,2,2,83,1,Songs can be put in a container,j,,,
,,,,,,,,1845,2022-04-06_19h08.59.962,ImplicitInfinitySC-FASTTASK,2021.2.3,Win32,59.88741167,,,,space,6.568,,,,,,,,,,f,1,1.3471,,0,3,3,10,1,An inch has an end,f,,,
,,,,,,,,1845,2022-04-06_19h08.59.962,ImplicitInfinitySC-FASTTASK,2021.2.3,Win32,59.88741167,,,,space,1.5201,,,,,,,,,,j,0,1.0853,,0,4,4,91,1,A circle is a shape,f,,,
,,,,,,,,1845,2022-04-06_19h08.59.962,ImplicitInfinitySC-FASTTASK,2021.2.3,Win32,59.88741167,,,,space,1.683,,,,,,,,,,j,1,1.6033,,0,5,5,123,1,Mississippi is a country,j,,,
,,,,,,,,1845,2022-04-06_19h08.59.962,ImplicitInfinitySC-FASTTASK,2021.2.3,Win32,59.88741167,,,,space,1.1672,,,,,,,,,,f,0,1.1396,,0,6,6,20,1,Time cannot go on forever,j,,,
,,,,,,,,1845,2022-04-06_19h08.59.962,ImplicitInfinitySC-FASTTASK,2021.2.3,Win32,59.88741167,,,,space,1.4906,,,,,,,,,,f,1,1.6757,,0,7,7,106,1,Humans cannot breathe water,f,,,
,,,,,,,,1845,2022-04-06_19h08.59.962,ImplicitInfinitySC-FASTTASK,2021.2.3,Win32,59.88741167,,,,space,1.1654,,,,,,,,,,f,1,1.5067,,0,8,8,98,1,A clock is used to tell time,f,,,
,,,,,,,,1845,2022-04-06_19h08.59.962,ImplicitInfinitySC-FASTTASK,2021.2.3,Win32,59.88741167,,,,space,1.5351,,,,,,,,,,f,0,1.9875,,0,9,9,84,1,Silence is composed of matter,j,,,
,,,,,,,,1845,2022-04-06_19h08.59.962,ImplicitInfinitySC-FASTTASK,2021.2.3,Win32,59.88741167,,,,space,2.5332,,,,,,,,,,j,0,3.0091,,0,10,10,101,1,Jupiter is in our solar system,f,,,
,,,,,,,,1845,2022-04-06_19h08.59.962,ImplicitInfinitySC-FASTTASK,2021.2.3,Win32,59.88741167,,,,space,1.4847,,,,,,,,,,f,1,1.6527,,0,11,11,27,1,Space is endless,f,,,
,,,,,,,,1845,2022-04-06_19h08.59.962,ImplicitInfinitySC-FASTTASK,2021.2.3,Win32,59.88741167,,,,space,1.5088,,,,,,,,,,f,0,2.5733,,0,12,12,22,1,Time cannot always be further divided,j,,,
,,,,,,,,1845,2022-04-06_19h08.59.962,ImplicitInfinitySC-FASTTASK,2021.2.3,Win32,59.88741167,,,,space,0.8492,,,,,,,,,,f,1,1.954,,0,13,13,55,1,Concrete is composed of matter,f,,,
,,,,,,,,1845,2022-04-06_19h08.59.962,ImplicitInfinitySC-FASTTASK,2021.2.3,Win32,59.88741167,,,,space,1.2164,,,,,,,,,,f,1,1.5709,,0,14,14,77,1,Saliva has a molecular structure,f,,,
,,,,,,,,1845,2022-04-06_19h08.59.962,ImplicitInfinitySC-FASTTASK,2021.2.3,Win32,59.88741167,,,,space,2.0153,,,,,,,,,,j,1,1.5808,,0,15,15,87,1,Dreams have a molecular structure,j,,,
,,,,,,,,1845,2022-04-06_19h08.59.962,ImplicitInfinitySC-FASTTASK,2021.2.3,Win32,59.88741167,,,,space,0.9648,,,,,,,,,,f,1,1.7921,,0,16,16,15,1,An inch can be always further divided,f,,,
,,,,,,,,1845,2022-04-06_19h08.59.962,ImplicitInfinitySC-FASTTASK,2021.2.3,Win32,59.88741167,,,,space,0.9577,,,,,,,,,,f,0,1.3103,,0,17,17,67,1,Gravity has a molecular structure,j,,,
,,,,,,,,1845,2022-04-06_19h08.59.962,ImplicitInfinitySC-FASTTASK,2021.2.3,Win32,59.88741167,,,,space,0.91,,,,,,,,,,f,1,0.9708,,0,18,18,95,1,Yellow is a color,f,,,
,,,,,,,,1845,2022-04-06_19h08.59.962,ImplicitInfinitySC-FASTTASK,2021.2.3,Win32,59.88741167,,,,space,1.2719,,,,,,,,,,f,1,1.4117,,0,19,19,69,1,Bacteria are alive,f,,,
,,,,,,,,1845,2022-04-06_19h08.59.962,ImplicitInfinitySC-FASTTASK,2021.2.3,Win32,59.88741167,,,,space,1.3796,,,,,,,,,,f,1,1.2077,,0,20,20,21,1,Time can go on forever,f,,,
,,,,,,,,1845,2022-04-06_19h08.59.962,ImplicitInfinitySC-FASTTASK,2021.2.3,Win32,59.88741167,,,,space,0.923,,,,,,,,,,j,1,1.304,,0,21,21,110,1,A triangle is an animal,j,,,
,,,,,,,,1845,2022-04-06_19h08.59.962,ImplicitInfinitySC-FASTTASK,2021.2.3,Win32,59.88741167,,,,space,0.8005,,,,,,,,,,f,0,1.1306,,0,22,22,28,1,Space cannot go on forever,j,,,
,,,,,,,,1845,2022-04-06_19h08.59.962,ImplicitInfinitySC-FASTTASK,2021.2.3,Win32,59.88741167,,,,space,1.1,,,,,,,,,,f,0,2.1054,,0,23,23,38,1,Numbers cannot always be further divided,j,,,
,,,,,,,,1845,2022-04-06_19h08.59.962,ImplicitInfinitySC-FASTTASK,2021.2.3,Win32,59.88741167,,,,space,1.2216,,,,,,,,,,f,1,1.4917,,0,24,24,48,1,Crocodiles are alive,f,,,
,,,,,,,,1845,2022-04-06_19h08.59.962,ImplicitInfinitySC-FASTTASK,2021.2.3,Win32,59.88741167,,,,space,1.0867,,,,,,,,,,f,0,1.187,,0,25,25,80,1,Mittens need nutrients,j,,,
,,,,,,,,1845,2022-04-06_19h08.59.962,ImplicitInfinitySC-FASTTASK,2021.2.3,Win32,59.88741167,,,,space,2.868,,,,,,,,,,j,1,1.5065,,0,26,26,111,1,A circle is a flavor,j,,,
,,,,,,,,1845,2022-04-06_19h08.59.962,ImplicitInfinitySC-FASTTASK,2021.2.3,Win32,59.88741167,,,,space,1.1431,,,,,,,,,,f,1,1.2401,,0,27,27,102,1,The Earth is a planet,f,,,
,,,,,,,,1845,2022-04-06_19h08.59.962,ImplicitInfinitySC-FASTTASK,2021.2.3,Win32,59.88741167,,,,space,1.5547,,,,,,,,,,j,1,1.5472,,0,28,28,82,1,Stones reproduce,j,,,
,,,,,,,,1845,2022-04-06_19h08.59.962,ImplicitInfinitySC-FASTTASK,2021.2.3,Win32,59.88741167,,,,space,1.451,,,,,,,,,,f,0,1.2544,,0,29,29,24,1,Space is finite,j,,,
,,,,,,,,1845,2022-04-06_19h08.59.962,ImplicitInfinitySC-FASTTASK,2021.2.3,Win32,59.88741167,,,,space,1.2672,,,,,,,,,,j,1,1.6124,,0,30,30,62,1,Helicopters reproduce,j,,,
,,,,,,,,1845,2022-04-06_19h08.59.962,ImplicitInfinitySC-FASTTASK,2021.2.3,Win32,59.88741167,,,,space,2.3682,,,,,,,,,,j,1,1.7225,,0,31,31,36,1,Numbers cannot go on forever,j,,,
,,,,,,,,1845,2022-04-06_19h08.59.962,ImplicitInfinitySC-FASTTASK,2021.2.3,Win32,59.88741167,,,,space,1.3914,,,,,,,,,,f,0,1.2059,,0,32,32,16,1,Time is finite,j,,,
,,,,,,,,1845,2022-04-06_19h08.59.962,ImplicitInfinitySC-FASTTASK,2021.2.3,Win32,59.88741167,,,,space,0.7866,,,,,,,,,,f,1,1.5402,,0,33,33,97,1,Dolphins can swim in the ocean,f,,,
,,,,,,,,1845,2022-04-06_19h08.59.962,ImplicitInfinitySC-FASTTASK,2021.2.3,Win32,59.88741167,,,,space,1.0729,,,,,,,,,,f,0,1.0196,,0,34,34,79,1,Forks are alive,j,,,
,,,,,,,,1845,2022-04-06_19h08.59.962,ImplicitInfinitySC-FASTTASK,2021.2.3,Win32,59.88741167,,,,space,0.8504,,,,,,,,,,j,1,2.0335,,0,35,35,9,1,An inch is infinite,j,,,
,,,,,,,,1845,2022-04-06_19h08.59.962,ImplicitInfinitySC-FASTTASK,2021.2.3,Win32,59.88741167,,,,space,0.9707,,,,,,,,,,f,1,1.5254,,0,36,36,105,1,There are fifty states in the United States,f,,,
,,,,,,,,1845,2022-04-06_19h08.59.962,ImplicitInfinitySC-FASTTASK,2021.2.3,Win32,59.88741167,,,,space,2.2982,,,,,,,,,,j,1,1.59,,0,37,37,125,1,There are ninty states in the United States,j,,,
,,,,,,,,1845,2022-04-06_19h08.59.962,ImplicitInfinitySC-FASTTASK,2021.2.3,Win32,59.88741167,,,,space,1.8725,,,,,,,,,,f,0,1.0121,,0,38,38,61,1,Sailboats reproduce,j,,,
,,,,,,,,1845,2022-04-06_19h08.59.962,ImplicitInfinitySC-FASTTASK,2021.2.3,Win32,59.88741167,,,,space,1.4067,,,,,,,,,,j,1,1.4193,,0,39,39,3,1,A minute is endless,j,,,
,,,,,,,,1845,2022-04-06_19h08.59.962,ImplicitInfinitySC-FASTTASK,2021.2.3,Win32,59.88741167,,,,space,2.2352,,,,,,,,,,f,1,1.4817,space,0,40,40,33,1,Numbers are infinite,f,0.5834,,
,,,,,,,,1845,2022-04-06_19h08.59.962,ImplicitInfinitySC-FASTTASK,2021.2.3,Win32,59.88741167,,,,space,1.8852,,,,,,,,,,j,0,2.0439,,0,41,41,4,1,A minute cannot go on forever,f,,,
,,,,,,,,1845,2022-04-06_19h08.59.962,ImplicitInfinitySC-FASTTASK,2021.2.3,Win32,59.88741167,,,,space,2.2294,,,,,,,,,,j,1,1.5007,,0,42,42,115,1,Yellow is an animal,j,,,
,,,,,,,,1845,2022-04-06_19h08.59.962,ImplicitInfinitySC-FASTTASK,2021.2.3,Win32,59.88741167,,,,space,1.4018,,,,,,,,,,j,1,1.781,,0,43,43,64,1,Echoes are composed of matter,j,,,
,,,,,,,,1845,2022-04-06_19h08.59.962,ImplicitInfinitySC-FASTTASK,2021.2.3,Win32,59.88741167,,,,space,0.9709,,,,,,,,,,f,0,1.3036,,0,44,44,32,1,Numbers are finite,j,,,
,,,,,,,,1845,2022-04-06_19h08.59.962,ImplicitInfinitySC-FASTTASK,2021.2.3,Win32,59.88741167,,,,space,2.7491,,,,,,,,,,j,1,1.1985,,0,45,45,58,1,Clocks are alive,j,,,
,,,,,,,,1845,2022-04-06_19h08.59.962,ImplicitInfinitySC-FASTTASK,2021.2.3,Win32,59.88741167,,,,space,1.688,,,,,,,,,,f,0,1.2945,,0,46,46,1,1,A minute is infinite,j,,,
,,,,,,,,1845,2022-04-06_19h08.59.962,ImplicitInfinitySC-FASTTASK,2021.2.3,Win32,59.88741167,,,,space,0.7837,,,,,,,,,,f,1,2.1633,,0,47,47,31,1,Space can always be further divided,f,,,
,,,,,,,,1845,2022-04-06_19h08.59.962,ImplicitInfinitySC-FASTTASK,2021.2.3,Win32,59.88741167,,,,space,0.7501,,,,,,,,,,f,1,1.5226,,0,48,48,0,1,A minute is finite,f,,,
,,,,,,,,1845,2022-04-06_19h08.59.962,ImplicitInfinitySC-FASTTASK,2021.2.3,Win32,59.88741167,,,,space,0.8344,,,,,,,,,,f,1,1.8872,,0,49,49,57,1,Rocks have a molecular structure,f,,,
,,,,,,,,1845,2022-04-06_19h08.59.962,ImplicitInfinitySC-FASTTASK,2021.2.3,Win32,59.88741167,,,,space,2.4029,,,,,,,,,,j,0,1.1294,,0,50,50,94,1,Orange is a color,f,,,
,,,,,,,,1845,2022-04-06_19h08.59.962,ImplicitInfinitySC-FASTTASK,2021.2.3,Win32,59.88741167,,,,space,0.9017,,,,,,,,,,f,1,1.6399,,0,51,51,68,1,Algae is alive,f,,,
,,,,,,,,1845,2022-04-06_19h08.59.962,ImplicitInfinitySC-FASTTASK,2021.2.3,Win32,59.88741167,,,,space,1.4022,,,,,,,,,,j,0,1.3838,,0,52,52,70,1,Grass needs nutrients,f,,,
,,,,,,,,1845,2022-04-06_19h08.59.962,ImplicitInfinitySC-FASTTASK,2021.2.3,Win32,59.88741167,,,,space,2.4375,,,,,,,,,,f,0,1.5288,,0,53,53,121,1,Jupiter is the planet we live on,j,,,
,,,,,,,,1845,2022-04-06_19h08.59.962,ImplicitInfinitySC-FASTTASK,2021.2.3,Win32,59.88741167,,,,space,2.0599,,,,,,,,,,j,0,1.4039,,0,54,54,99,1,A motorcycle is a vehicle,f,,,
,,,,,,,,1845,2022-04-06_19h08.59.962,ImplicitInfinitySC-FASTTASK,2021.2.3,Win32,59.88741167,,,,space,1.8113,,,,,,,,,,f,1,1.8552,,0,55,55,42,1,The number five has an end,f,,,
,,,,,,,,1845,2022-04-06_19h08.59.962,ImplicitInfinitySC-FASTTASK,2021.2.3,Win32,59.88741167,,,,space,1.0182,,,,,,,,,,f,0,1.7484,,0,56,56,45,1,The number five can go on forever,j,,,
,,,,,,,,1845,2022-04-06_19h08.59.962,ImplicitInfinitySC-FASTTASK,2021.2.3,Win32,59.88741167,,,,space,1.9671,,,,,,,,,,j,1,1.9788,,0,57,57,46,1,The number five cannot always be further divided,j,,,
,,,,,,,,1845,2022-04-06_19h08.59.962,ImplicitInfinitySC-FASTTASK,2021.2.3,Win32,59.88741167,,,,space,1.147,,,,,,,,,,j,1,1.7387,,0,58,58,122,1,The Earth is a star,j,,,
,,,,,,,,1845,2022-04-06_19h08.59.962,ImplicitInfinitySC-FASTTASK,2021.2.3,Win32,59.88741167,,,,space,1.4018,,,,,,,,,,f,1,1.584,,0,59,59,2,1,A minute has an end,f,,,
,,,,,,,,1845,2022-04-06_19h08.59.962,ImplicitInfinitySC-FASTTASK,2021.2.3,Win32,59.88741167,,,,space,1.0558,,,,,,,,,,f,1,1.8234,,0,60,60,8,1,An inch is finite,f,,,
,,,,,,,,1845,2022-04-06_19h08.59.962,ImplicitInfinitySC-FASTTASK,2021.2.3,Win32,59.88741167,,,,space,1.3483,,,,,,,,,,j,1,1.4785,,0,61,61,43,1,The number five is endless,j,,,
,,,,,,,,1845,2022-04-06_19h08.59.962,ImplicitInfinitySC-FASTTASK,2021.2.3,Win32,59.88741167,,,,space,1.8689,,,,,,,,,,j,1,2.356,,0,62,62,127,1,A zebra is used to write,j,,,
,,,,,,,,1845,2022-04-06_19h08.59.962,ImplicitInfinitySC-FASTTASK,2021.2.3,Win32,59.88741167,,,,space,1.3039,,,,,,,,,,j,1,1.4553,,0,63,63,109,1,A square is a color,j,,,
,,,,,,,,1845,2022-04-06_19h08.59.962,ImplicitInfinitySC-FASTTASK,2021.2.3,Win32,59.88741167,,,,space,1.4928,,,,,,,,,,f,0,1.6926,,0,64,64,26,1,Space has an end,j,,,
,,,,,,,,1845,2022-04-06_19h08.59.962,ImplicitInfinitySC-FASTTASK,2021.2.3,Win32,59.88741167,,,,space,1.3157,,,,,,,,,,f,0,1.8281,,0,65,65,63,1,Color can be put in a container,j,,,
,,,,,,,,1845,2022-04-06_19h08.59.962,ImplicitInfinitySC-FASTTASK,2021.2.3,Win32,59.88741167,,,,space,1.5552,,,,,,,,,,j,0,1.4504,,0,66,66,90,1,A triangle is not an animal,f,,,
,,,,,,,,1845,2022-04-06_19h08.59.962,ImplicitInfinitySC-FASTTASK,2021.2.3,Win32,59.88741167,,,,space,1.0732,,,,,,,,,,j,1,1.6506,,0,67,67,86,1,Words have a molecular structure,j,,,
,,,,,,,,1845,2022-04-06_19h08.59.962,ImplicitInfinitySC-FASTTASK,2021.2.3,Win32,59.88741167,,,,space,3.3033,,,,,,,,,,j,1,1.6793,,0,68,68,112,1,Dinosaurs are not extinct,j,,,
,,,,,,,,1845,2022-04-06_19h08.59.962,ImplicitInfinitySC-FASTTASK,2021.2.3,Win32,59.88741167,,,,space,2.1632,,,,,,,,,,j,1,1.4947,,0,69,69,120,1,A truck is an animal,j,,,
,,,,,,,,1845,2022-04-06_19h08.59.962,ImplicitInfinitySC-FASTTASK,2021.2.3,Win32,59.88741167,,,,space,0.9907,,,,,,,,,,j,0,1.9705,,0,70,70,40,1,The number five is finite,f,,,
,,,,,,,,1845,2022-04-06_19h08.59.962,ImplicitInfinitySC-FASTTASK,2021.2.3,Win32,59.88741167,,,,space,0.7731,,,,,,,,,,f,1,1.7539,,0,71,71,107,1,A pencil is used to write,f,,,
,,,,,,,,1845,2022-04-06_19h08.59.962,ImplicitInfinitySC-FASTTASK,2021.2.3,Win32,59.88741167,,,,space,0.733,,,,,,,,,,j,1,1.6575,,0,72,72,11,1,An inch is endless,j,,,
,,,,,,,,1845,2022-04-06_19h08.59.962,ImplicitInfinitySC-FASTTASK,2021.2.3,Win32,59.88741167,,,,space,1.4927,,,,,,,,,,f,1,1.9006,,0,73,73,49,1,Pelicans are alive,f,,,
,,,,,,,,1845,2022-04-06_19h08.59.962,ImplicitInfinitySC-FASTTASK,2021.2.3,Win32,59.88741167,,,,space,1.0716,,,,,,,,,,f,1,1.5794,,0,74,74,96,1,Fish can swim in the ocean,f,,,
,,,,,,,,1845,2022-04-06_19h08.59.962,ImplicitInfinitySC-FASTTASK,2021.2.3,Win32,59.88741167,,,,space,0.5706,,,,,,,,,,f,1,1.9722,,0,75,75,54,1,Dumbells are composed of matter,f,,,
,,,,,,,,1845,2022-04-06_19h08.59.962,ImplicitInfinitySC-FASTTASK,2021.2.3,Win32,59.88741167,,,,space,1.1586,,,,,,,,,,j,1,1.5385,,0,76,76,78,1,Hammers are alive,j,,,
,,,,,,,,1845,2022-04-06_19h08.59.962,ImplicitInfinitySC-FASTTASK,2021.2.3,Win32,59.88741167,,,,space,0.8008,,,,,,,,,,j,1,2.071,,0,77,77,18,1,Time has an end,j,,,
,,,,,,,,1845,2022-04-06_19h08.59.962,ImplicitInfinitySC-FASTTASK,2021.2.3,Win32,59.88741167,,,,space,3.119,,,,,,,,,,j,1,1.5282,,0,78,78,119,1,A motorcycle is a person,j,,,
,,,,,,,,1845,2022-04-06_19h08.59.962,ImplicitInfinitySC-FASTTASK,2021.2.3,Win32,59.88741167,,,,space,1.7841,,,,,,,,,,f,1,1.4043,,0,79,79,37,1,Numbers can go on forever,f,,,
,,,,,,,,1845,2022-04-06_19h08.59.962,ImplicitInfinitySC-FASTTASK,2021.2.3,Win32,59.88741167,,,,space,0.7104,,,,,,,,,,j,1,1.7617,,0,80,80,14,1,An inch cannot always be further divided,j,,,
,,,,,,,,1845,2022-04-06_19h08.59.962,ImplicitInfinitySC-FASTTASK,2021.2.3,Win32,59.88741167,,,,,,,,,,,,,,,,,,,,,,,,,,,space,27.0421
