INSTRESP.keys,INSTRESP.rt,Instrloop.thisRepN,Instrloop.thisTrialN,Instrloop.thisN,Instrloop.thisIndex,Instrloop.ran,FastInstructions,participant,date,expName,psychopyVersion,OS,frameRate,key_resp_2.keys,key_resp_2.corr,key_resp_2.rt,Advance_Resp.keys,Advance_Resp.rt,Practice.thisRepN,Practice.thisTrialN,Practice.thisN,Practice.thisIndex,Practice.ran,practicetext,practicecorrect,key_resp_3.keys,key_resp_3.rt,key_resp.keys,key_resp.corr,key_resp.rt,encouragekey.keys,FastLoop.thisRepN,FastLoop.thisTrialN,FastLoop.thisN,FastLoop.thisIndex,FastLoop.ran,Statement,Correct,encouragekey.rt,endstudykey.keys
space,20.147,0,0,0,0,1,"You will be shown a total of 80 statements pertaining to mathematics, science, and social concepts. Your task is to determine whether each statement is true or false as quickly as possible without sacrificing accuracy. Some statements will be difficult and some will be easier.  We do not expect you to know the correct answer for all 80 statements.  Press SPACE to Continue",2298,2022-04-06_17h04.08.651,ImplicitInfinitySC-FASTTASK,2021.2.3,Win32,58.19028222,,,,,,,,,,,,,,,,,,,,,,,,,,,
space,10.9642,0,1,1,1,1,"Each statement will appear on your screen for up to 4 seconds and you will have those 4 seconds to decide if it is true or false before the next statement appears. There will be a beep to inform you that you have 2.5 seconds remaining. Please make sure the sound on your computer is turned on. If you do not respond, that answer will be considered incorrect and the task will move on to the next statement. Press SPACE to continue",2298,2022-04-06_17h04.08.651,ImplicitInfinitySC-FASTTASK,2021.2.3,Win32,58.19028222,,,,,,,,,,,,,,,,,,,,,,,,,,,
space,8.1225,0,2,2,2,1,"If the statement is true, you will press the “F” key on your keyboard with your left pointer finger; if the statement is false, you will press the “J” key on your keyboard with your right pointer finger. Press SPACE to continue",2298,2022-04-06_17h04.08.651,ImplicitInfinitySC-FASTTASK,2021.2.3,Win32,58.19028222,,,,,,,,,,,,,,,,,,,,,,,,,,,
space,4.2553,0,3,3,3,1,"Prior to completing the study, you will complete 10 practice trials to familiarize yourself with the task. Your performance on these trials will determine your participation in the following study. Press SPACE to continue.",2298,2022-04-06_17h04.08.651,ImplicitInfinitySC-FASTTASK,2021.2.3,Win32,58.19028222,,,,,,,,,,,,,,,,,,,,,,,,,,,
space,1.9977,0,4,4,4,1,"If the statement is true, press the “F” key on your keyboard with your left pointer finger; if the statement is false, press the “J” key on your keyboard with your right pointer finger. Press SPACE to continue",2298,2022-04-06_17h04.08.651,ImplicitInfinitySC-FASTTASK,2021.2.3,Win32,58.19028222,,,,,,,,,,,,,,,,,,,,,,,,,,,
,,,,,,,,2298,2022-04-06_17h04.08.651,ImplicitInfinitySC-FASTTASK,2021.2.3,Win32,58.19028222,j,1,1.3767,space,2.2695,0,0,0,8,1,Mississippi is a country,j,,,,,,,,,,,,,,,
,,,,,,,,2298,2022-04-06_17h04.08.651,ImplicitInfinitySC-FASTTASK,2021.2.3,Win32,58.19028222,f,1,1.1688,space,0.654,0,1,1,3,1,A clock is used to tell time,f,,,,,,,,,,,,,,,
,,,,,,,,2298,2022-04-06_17h04.08.651,ImplicitInfinitySC-FASTTASK,2021.2.3,Win32,58.19028222,f,1,1.1025,space,0.3457,0,2,2,0,1,A circle is a shape,f,,,,,,,,,,,,,,,
,,,,,,,,2298,2022-04-06_17h04.08.651,ImplicitInfinitySC-FASTTASK,2021.2.3,Win32,58.19028222,j,1,1.2454,space,0.4776,0,3,3,5,1,A truck is an animal,j,,,,,,,,,,,,,,,
,,,,,,,,2298,2022-04-06_17h04.08.651,ImplicitInfinitySC-FASTTASK,2021.2.3,Win32,58.19028222,j,1,1.5087,space,2.4602,0,4,4,7,1,The Earth is a star,j,,,,,,,,,,,,,,,
,,,,,,,,2298,2022-04-06_17h04.08.651,ImplicitInfinitySC-FASTTASK,2021.2.3,Win32,58.19028222,j,1,1.4687,space,0.568,0,5,5,9,1,Humans cannot eat food,j,,,,,,,,,,,,,,,
,,,,,,,,2298,2022-04-06_17h04.08.651,ImplicitInfinitySC-FASTTASK,2021.2.3,Win32,58.19028222,f,1,1.3983,space,0.6425,0,6,6,1,1,Dinosaurs are extinct,f,,,,,,,,,,,,,,,
,,,,,,,,2298,2022-04-06_17h04.08.651,ImplicitInfinitySC-FASTTASK,2021.2.3,Win32,58.19028222,j,1,1.3761,space,0.3692,0,7,7,6,1,Jupiter is the planet we live on,j,,,,,,,,,,,,,,,
,,,,,,,,2298,2022-04-06_17h04.08.651,ImplicitInfinitySC-FASTTASK,2021.2.3,Win32,58.19028222,f,1,1.0185,space,0.3502,0,8,8,2,1,Magenta is a color,f,,,,,,,,,,,,,,,
,,,,,,,,2298,2022-04-06_17h04.08.651,ImplicitInfinitySC-FASTTASK,2021.2.3,Win32,58.19028222,f,1,3.4675,space,0.4351,0,9,9,4,1,Humans cannot breathe water,f,,,,,,,,,,,,,,,
,,,,,,,,2298,2022-04-06_17h04.08.651,ImplicitInfinitySC-FASTTASK,2021.2.3,Win32,58.19028222,,,,space,0.9655,,,,,,,,space,0.2245,j,1,1.02,,0,0,0,60,1,Robots need nutrients,j,,
,,,,,,,,2298,2022-04-06_17h04.08.651,ImplicitInfinitySC-FASTTASK,2021.2.3,Win32,58.19028222,,,,space,1.132,,,,,,,,,,j,0,1.4596,,0,1,1,7,1,A minute can always be further divided,f,,
,,,,,,,,2298,2022-04-06_17h04.08.651,ImplicitInfinitySC-FASTTASK,2021.2.3,Win32,58.19028222,,,,space,0.8341,,,,,,,,,,f,1,1.4071,,0,2,2,99,1,A motorcycle is a vehicle,f,,
,,,,,,,,2298,2022-04-06_17h04.08.651,ImplicitInfinitySC-FASTTASK,2021.2.3,Win32,58.19028222,,,,space,0.7043,,,,,,,,,,j,1,1.0608,,0,3,3,121,1,Jupiter is the planet we live on,j,,
,,,,,,,,2298,2022-04-06_17h04.08.651,ImplicitInfinitySC-FASTTASK,2021.2.3,Win32,58.19028222,,,,space,0.6164,,,,,,,,,,j,1,0.9352,,0,4,4,123,1,Mississippi is a country,j,,
,,,,,,,,2298,2022-04-06_17h04.08.651,ImplicitInfinitySC-FASTTASK,2021.2.3,Win32,58.19028222,,,,space,0.8488,,,,,,,,,,f,1,1.4842,,0,5,5,74,1,Foam is composed of matter,f,,
,,,,,,,,2298,2022-04-06_17h04.08.651,ImplicitInfinitySC-FASTTASK,2021.2.3,Win32,58.19028222,,,,space,0.625,,,,,,,,,,j,1,1.3687,,0,6,6,87,1,Dreams have a molecular structure,j,,
,,,,,,,,2298,2022-04-06_17h04.08.651,ImplicitInfinitySC-FASTTASK,2021.2.3,Win32,58.19028222,,,,space,0.5773,,,,,,,,,,j,1,0.9497,,0,7,7,122,1,The Earth is a star,j,,
,,,,,,,,2298,2022-04-06_17h04.08.651,ImplicitInfinitySC-FASTTASK,2021.2.3,Win32,58.19028222,,,,space,0.5337,,,,,,,,,,f,1,1.075,,0,8,8,29,1,Space can go on forever,f,,
,,,,,,,,2298,2022-04-06_17h04.08.651,ImplicitInfinitySC-FASTTASK,2021.2.3,Win32,58.19028222,,,,space,0.6343,,,,,,,,,,j,1,1.7217,,0,9,9,24,1,Space is finite,j,,
,,,,,,,,2298,2022-04-06_17h04.08.651,ImplicitInfinitySC-FASTTASK,2021.2.3,Win32,58.19028222,,,,space,0.6907,,,,,,,,,,f,0,1.2756,,0,10,10,34,1,Numbers have an end,j,,
,,,,,,,,2298,2022-04-06_17h04.08.651,ImplicitInfinitySC-FASTTASK,2021.2.3,Win32,58.19028222,,,,space,0.5159,,,,,,,,,,f,1,1.0875,,0,11,11,98,1,A clock is used to tell time,f,,
,,,,,,,,2298,2022-04-06_17h04.08.651,ImplicitInfinitySC-FASTTASK,2021.2.3,Win32,58.19028222,,,,space,0.4726,,,,,,,,,,j,1,0.9331,,0,12,12,126,1,Humans can breathe water,j,,
,,,,,,,,2298,2022-04-06_17h04.08.651,ImplicitInfinitySC-FASTTASK,2021.2.3,Win32,58.19028222,,,,space,0.4007,,,,,,,,,,f,1,0.8171,,0,13,13,91,1,A circle is a shape,f,,
,,,,,,,,2298,2022-04-06_17h04.08.651,ImplicitInfinitySC-FASTTASK,2021.2.3,Win32,58.19028222,,,,space,0.5567,,,,,,,,,,f,1,1.4141,,0,14,14,53,1,Bricks can be put in a container,f,,
,,,,,,,,2298,2022-04-06_17h04.08.651,ImplicitInfinitySC-FASTTASK,2021.2.3,Win32,58.19028222,,,,space,0.7375,,,,,,,,,,j,0,1.3655,,0,15,15,12,1,An inch cannot go on forever,f,,
,,,,,,,,2298,2022-04-06_17h04.08.651,ImplicitInfinitySC-FASTTASK,2021.2.3,Win32,58.19028222,,,,space,0.4159,,,,,,,,,,f,1,0.7464,,0,16,16,93,1,Magenta is a color,f,,
,,,,,,,,2298,2022-04-06_17h04.08.651,ImplicitInfinitySC-FASTTASK,2021.2.3,Win32,58.19028222,,,,space,0.3709,,,,,,,,,,j,1,0.842,,0,17,17,78,1,Hammers are alive,j,,
,,,,,,,,2298,2022-04-06_17h04.08.651,ImplicitInfinitySC-FASTTASK,2021.2.3,Win32,58.19028222,,,,space,0.4376,,,,,,,,,,f,0,1.2156,,0,18,18,67,1,Gravity has a molecular structure,j,,
,,,,,,,,2298,2022-04-06_17h04.08.651,ImplicitInfinitySC-FASTTASK,2021.2.3,Win32,58.19028222,,,,space,0.3474,,,,,,,,,,j,1,0.9608,,0,19,19,115,1,Yellow is an animal,j,,
,,,,,,,,2298,2022-04-06_17h04.08.651,ImplicitInfinitySC-FASTTASK,2021.2.3,Win32,58.19028222,,,,space,0.824,,,,,,,,,,f,0,1.5076,,0,20,20,46,1,The number five cannot always be further divided,j,,
,,,,,,,,2298,2022-04-06_17h04.08.651,ImplicitInfinitySC-FASTTASK,2021.2.3,Win32,58.19028222,,,,space,0.419,,,,,,,,,,f,1,1.1728,,0,21,21,76,1,Pollen has a molecular structure,f,,
,,,,,,,,2298,2022-04-06_17h04.08.651,ImplicitInfinitySC-FASTTASK,2021.2.3,Win32,58.19028222,,,,space,0.4805,,,,,,,,,,j,0,1.4616,,0,22,22,4,1,A minute cannot go on forever,f,,
,,,,,,,,2298,2022-04-06_17h04.08.651,ImplicitInfinitySC-FASTTASK,2021.2.3,Win32,58.19028222,,,,space,0.352,,,,,,,,,,j,1,1.2933,,0,23,23,112,1,Dinosaurs are not extinct,j,,
,,,,,,,,2298,2022-04-06_17h04.08.651,ImplicitInfinitySC-FASTTASK,2021.2.3,Win32,58.19028222,,,,space,0.3835,,,,,,,,,,j,1,1.0675,,0,24,24,59,1,Comets are alive,j,,
,,,,,,,,2298,2022-04-06_17h04.08.651,ImplicitInfinitySC-FASTTASK,2021.2.3,Win32,58.19028222,,,,space,0.3693,,,,,,,,,,j,1,1.1754,,0,25,25,6,1,A minute cannot always be further divided,j,,
,,,,,,,,2298,2022-04-06_17h04.08.651,ImplicitInfinitySC-FASTTASK,2021.2.3,Win32,58.19028222,,,,space,0.3031,,,,,,,,,,f,1,1.0095,,0,26,26,71,1,Oaks reproduce,f,,
,,,,,,,,2298,2022-04-06_17h04.08.651,ImplicitInfinitySC-FASTTASK,2021.2.3,Win32,58.19028222,,,,space,0.3846,,,,,,,,,,j,0,1.3717,,0,27,27,33,1,Numbers are infinite,f,,
,,,,,,,,2298,2022-04-06_17h04.08.651,ImplicitInfinitySC-FASTTASK,2021.2.3,Win32,58.19028222,,,,space,0.2859,,,,,,,,,,f,1,1.2821,,0,28,28,97,1,Dolphins can swim in the ocean,f,,
,,,,,,,,2298,2022-04-06_17h04.08.651,ImplicitInfinitySC-FASTTASK,2021.2.3,Win32,58.19028222,,,,space,0.3009,,,,,,,,,,f,1,1.3671,,0,29,29,47,1,The number five can always be further divided,f,,
,,,,,,,,2298,2022-04-06_17h04.08.651,ImplicitInfinitySC-FASTTASK,2021.2.3,Win32,58.19028222,,,,space,0.3281,,,,,,,,,,f,1,1.2124,,0,30,30,54,1,Dumbells are composed of matter,f,,
,,,,,,,,2298,2022-04-06_17h04.08.651,ImplicitInfinitySC-FASTTASK,2021.2.3,Win32,58.19028222,,,,space,0.3213,,,,,,,,,,f,1,1.231,,0,31,31,101,1,Jupiter is in our solar system,f,,
,,,,,,,,2298,2022-04-06_17h04.08.651,ImplicitInfinitySC-FASTTASK,2021.2.3,Win32,58.19028222,,,,space,0.3105,,,,,,,,,,f,1,1.2311,,0,32,32,10,1,An inch has an end,f,,
,,,,,,,,2298,2022-04-06_17h04.08.651,ImplicitInfinitySC-FASTTASK,2021.2.3,Win32,58.19028222,,,,space,0.285,,,,,,,,,,f,1,1.2738,,0,33,33,95,1,Yellow is a color,f,,
,,,,,,,,2298,2022-04-06_17h04.08.651,ImplicitInfinitySC-FASTTASK,2021.2.3,Win32,58.19028222,,,,space,0.4696,,,,,,,,,,j,1,1.2849,,0,34,34,43,1,The number five is endless,j,,
,,,,,,,,2298,2022-04-06_17h04.08.651,ImplicitInfinitySC-FASTTASK,2021.2.3,Win32,58.19028222,,,,space,0.389,,,,,,,,,,j,1,1.4284,,0,35,35,20,1,Time cannot go on forever,j,,
,,,,,,,,2298,2022-04-06_17h04.08.651,ImplicitInfinitySC-FASTTASK,2021.2.3,Win32,58.19028222,,,,space,0.3132,,,,,,,,,,j,1,0.9344,,0,36,36,79,1,Forks are alive,j,,
,,,,,,,,2298,2022-04-06_17h04.08.651,ImplicitInfinitySC-FASTTASK,2021.2.3,Win32,58.19028222,,,,space,0.3168,,,,,,,,,,f,1,0.8945,,0,37,37,52,1,Frogs reproduce,f,,
,,,,,,,,2298,2022-04-06_17h04.08.651,ImplicitInfinitySC-FASTTASK,2021.2.3,Win32,58.19028222,,,,space,0.2845,,,,,,,,,,f,1,0.9824,,0,38,38,56,1,Diamonds have a molecular structure,f,,
,,,,,,,,2298,2022-04-06_17h04.08.651,ImplicitInfinitySC-FASTTASK,2021.2.3,Win32,58.19028222,,,,space,0.6345,,,,,,,,,,j,0,0.9396,,0,39,39,68,1,Algae is alive,f,,
,,,,,,,,2298,2022-04-06_17h04.08.651,ImplicitInfinitySC-FASTTASK,2021.2.3,Win32,58.19028222,,,,space,0.706,,,,,,,,,,j,1,1.2165,space,0,40,40,1,1,A minute is infinite,j,1.1174,
,,,,,,,,2298,2022-04-06_17h04.08.651,ImplicitInfinitySC-FASTTASK,2021.2.3,Win32,58.19028222,,,,space,0.2707,,,,,,,,,,j,1,0.9749,,0,41,41,5,1,A minute can go on forever,j,,
,,,,,,,,2298,2022-04-06_17h04.08.651,ImplicitInfinitySC-FASTTASK,2021.2.3,Win32,58.19028222,,,,space,0.4159,,,,,,,,,,f,1,1.0757,,0,42,42,70,1,Grass needs nutrients,f,,
,,,,,,,,2298,2022-04-06_17h04.08.651,ImplicitInfinitySC-FASTTASK,2021.2.3,Win32,58.19028222,,,,space,0.3345,,,,,,,,,,f,1,0.8616,,0,43,43,49,1,Pelicans are alive,f,,
,,,,,,,,2298,2022-04-06_17h04.08.651,ImplicitInfinitySC-FASTTASK,2021.2.3,Win32,58.19028222,,,,space,0.3071,,,,,,,,,,f,1,1.5206,,0,44,44,21,1,Time can go on forever,f,,
,,,,,,,,2298,2022-04-06_17h04.08.651,ImplicitInfinitySC-FASTTASK,2021.2.3,Win32,58.19028222,,,,space,0.2702,,,,,,,,,,f,1,1.1694,,0,45,45,2,1,A minute has an end,f,,
,,,,,,,,2298,2022-04-06_17h04.08.651,ImplicitInfinitySC-FASTTASK,2021.2.3,Win32,58.19028222,,,,space,0.3027,,,,,,,,,,j,1,1.1326,,0,46,46,66,1,Music has a molecular structure,j,,
,,,,,,,,2298,2022-04-06_17h04.08.651,ImplicitInfinitySC-FASTTASK,2021.2.3,Win32,58.19028222,,,,space,0.3302,,,,,,,,,,j,1,0.9567,,0,47,47,119,1,A motorcycle is a person,j,,
,,,,,,,,2298,2022-04-06_17h04.08.651,ImplicitInfinitySC-FASTTASK,2021.2.3,Win32,58.19028222,,,,space,0.3508,,,,,,,,,,j,1,1.3901,,0,48,48,65,1,Shadows are composed of matter,j,,
,,,,,,,,2298,2022-04-06_17h04.08.651,ImplicitInfinitySC-FASTTASK,2021.2.3,Win32,58.19028222,,,,space,0.3146,,,,,,,,,,f,1,1.3678,,0,49,49,42,1,The number five has an end,f,,
,,,,,,,,2298,2022-04-06_17h04.08.651,ImplicitInfinitySC-FASTTASK,2021.2.3,Win32,58.19028222,,,,space,0.2665,,,,,,,,,,f,1,0.9334,,0,50,50,27,1,Space is endless,f,,
,,,,,,,,2298,2022-04-06_17h04.08.651,ImplicitInfinitySC-FASTTASK,2021.2.3,Win32,58.19028222,,,,space,0.2842,,,,,,,,,,j,0,1.0364,,0,51,51,8,1,An inch is finite,f,,
,,,,,,,,2298,2022-04-06_17h04.08.651,ImplicitInfinitySC-FASTTASK,2021.2.3,Win32,58.19028222,,,,space,0.5438,,,,,,,,,,j,1,1.5496,,0,52,52,16,1,Time is finite,j,,
,,,,,,,,2298,2022-04-06_17h04.08.651,ImplicitInfinitySC-FASTTASK,2021.2.3,Win32,58.19028222,,,,space,0.3068,,,,,,,,,,j,1,1.1702,,0,53,53,84,1,Silence is composed of matter,j,,
,,,,,,,,2298,2022-04-06_17h04.08.651,ImplicitInfinitySC-FASTTASK,2021.2.3,Win32,58.19028222,,,,,,,,,,,,,,,,0,,,0,54,54,83,1,Songs can be put in a container,j,,
,,,,,,,,2298,2022-04-06_17h04.08.651,ImplicitInfinitySC-FASTTASK,2021.2.3,Win32,58.19028222,,,,space,2.0732,,,,,,,,,,,0,,,0,55,55,90,1,A triangle is not an animal,f,,
,,,,,,,,2298,2022-04-06_17h04.08.651,ImplicitInfinitySC-FASTTASK,2021.2.3,Win32,58.19028222,,,,space,1.0571,,,,,,,,,,j,1,1.3701,,0,56,56,26,1,Space has an end,j,,
,,,,,,,,2298,2022-04-06_17h04.08.651,ImplicitInfinitySC-FASTTASK,2021.2.3,Win32,58.19028222,,,,space,0.2663,,,,,,,,,,f,1,1.2427,,0,57,57,55,1,Concrete is composed of matter,f,,
,,,,,,,,2298,2022-04-06_17h04.08.651,ImplicitInfinitySC-FASTTASK,2021.2.3,Win32,58.19028222,,,,space,0.216,,,,,,,,,,f,1,1.217,,0,58,58,75,1,Frost is composed of matter,f,,
,,,,,,,,2298,2022-04-06_17h04.08.651,ImplicitInfinitySC-FASTTASK,2021.2.3,Win32,58.19028222,,,,space,0.2209,,,,,,,,,,f,1,0.8505,,0,59,59,51,1,Tigers reproduce,f,,
,,,,,,,,2298,2022-04-06_17h04.08.651,ImplicitInfinitySC-FASTTASK,2021.2.3,Win32,58.19028222,,,,space,0.2854,,,,,,,,,,f,1,0.7164,,0,60,60,96,1,Fish can swim in the ocean,f,,
,,,,,,,,2298,2022-04-06_17h04.08.651,ImplicitInfinitySC-FASTTASK,2021.2.3,Win32,58.19028222,,,,space,0.3182,,,,,,,,,,j,1,1.0345,,0,61,61,62,1,Helicopters reproduce,j,,
,,,,,,,,2298,2022-04-06_17h04.08.651,ImplicitInfinitySC-FASTTASK,2021.2.3,Win32,58.19028222,,,,space,0.7183,,,,,,,,,,f,0,1.6184,,0,62,62,82,1,Stones reproduce,j,,
,,,,,,,,2298,2022-04-06_17h04.08.651,ImplicitInfinitySC-FASTTASK,2021.2.3,Win32,58.19028222,,,,space,0.2346,,,,,,,,,,f,1,0.9352,,0,63,63,94,1,Orange is a color,f,,
,,,,,,,,2298,2022-04-06_17h04.08.651,ImplicitInfinitySC-FASTTASK,2021.2.3,Win32,58.19028222,,,,space,0.4843,,,,,,,,,,j,1,1.617,,0,64,64,127,1,A zebra is used to write,j,,
,,,,,,,,2298,2022-04-06_17h04.08.651,ImplicitInfinitySC-FASTTASK,2021.2.3,Win32,58.19028222,,,,space,0.2507,,,,,,,,,,f,1,1.4697,,0,65,65,15,1,An inch can be always further divided,f,,
,,,,,,,,2298,2022-04-06_17h04.08.651,ImplicitInfinitySC-FASTTASK,2021.2.3,Win32,58.19028222,,,,space,0.3021,,,,,,,,,,j,1,0.9844,,0,66,66,28,1,Space cannot go on forever,j,,
,,,,,,,,2298,2022-04-06_17h04.08.651,ImplicitInfinitySC-FASTTASK,2021.2.3,Win32,58.19028222,,,,space,0.4015,,,,,,,,,,j,0,1.2996,,0,67,67,73,1,Bubbles can be put in a container,f,,
,,,,,,,,2298,2022-04-06_17h04.08.651,ImplicitInfinitySC-FASTTASK,2021.2.3,Win32,58.19028222,,,,space,0.3035,,,,,,,,,,j,1,1.0697,,0,68,68,81,1,Tables reproduce,j,,
,,,,,,,,2298,2022-04-06_17h04.08.651,ImplicitInfinitySC-FASTTASK,2021.2.3,Win32,58.19028222,,,,space,0.5736,,,,,,,,,,j,0,1.2822,,0,69,69,0,1,A minute is finite,f,,
,,,,,,,,2298,2022-04-06_17h04.08.651,ImplicitInfinitySC-FASTTASK,2021.2.3,Win32,58.19028222,,,,space,0.2844,,,,,,,,,,j,1,1.318,,0,70,70,41,1,The number five is infinite,j,,
,,,,,,,,2298,2022-04-06_17h04.08.651,ImplicitInfinitySC-FASTTASK,2021.2.3,Win32,58.19028222,,,,space,0.2189,,,,,,,,,,j,1,1.0505,,0,71,71,45,1,The number five can go on forever,j,,
,,,,,,,,2298,2022-04-06_17h04.08.651,ImplicitInfinitySC-FASTTASK,2021.2.3,Win32,58.19028222,,,,space,0.2351,,,,,,,,,,j,1,0.9515,,0,72,72,13,1,An inch can go on forever,j,,
,,,,,,,,2298,2022-04-06_17h04.08.651,ImplicitInfinitySC-FASTTASK,2021.2.3,Win32,58.19028222,,,,space,0.2681,,,,,,,,,,f,1,1.168,,0,73,73,72,1,Mushrooms reproduce,f,,
,,,,,,,,2298,2022-04-06_17h04.08.651,ImplicitInfinitySC-FASTTASK,2021.2.3,Win32,58.19028222,,,,space,0.3682,,,,,,,,,,j,1,1.5679,,0,74,74,108,1,This sentence is written in Spanish,j,,
,,,,,,,,2298,2022-04-06_17h04.08.651,ImplicitInfinitySC-FASTTASK,2021.2.3,Win32,58.19028222,,,,space,0.2012,,,,,,,,,,j,1,1.3527,,0,75,75,111,1,A circle is a flavor,j,,
,,,,,,,,2298,2022-04-06_17h04.08.651,ImplicitInfinitySC-FASTTASK,2021.2.3,Win32,58.19028222,,,,space,0.201,,,,,,,,,,f,1,1.1844,,0,76,76,89,1,A square is a shape,f,,
,,,,,,,,2298,2022-04-06_17h04.08.651,ImplicitInfinitySC-FASTTASK,2021.2.3,Win32,58.19028222,,,,space,0.1858,,,,,,,,,,j,1,1.1846,,0,77,77,14,1,An inch cannot always be further divided,j,,
,,,,,,,,2298,2022-04-06_17h04.08.651,ImplicitInfinitySC-FASTTASK,2021.2.3,Win32,58.19028222,,,,space,0.2178,,,,,,,,,,f,1,1.1173,,0,78,78,103,1,The United States is a country,f,,
,,,,,,,,2298,2022-04-06_17h04.08.651,ImplicitInfinitySC-FASTTASK,2021.2.3,Win32,58.19028222,,,,space,0.2349,,,,,,,,,,j,1,1.1681,,0,79,79,109,1,A square is a color,j,,
,,,,,,,,2298,2022-04-06_17h04.08.651,ImplicitInfinitySC-FASTTASK,2021.2.3,Win32,58.19028222,,,,space,0.2012,,,,,,,,,,j,1,1.218,,0,80,80,124,1,The president of the United States is Oprah,j,,
,,,,,,,,2298,2022-04-06_17h04.08.651,ImplicitInfinitySC-FASTTASK,2021.2.3,Win32,58.19028222,,,,,,,,,,,,,,,,,,,,,,,,,,,
