INSTRESP.keys,INSTRESP.rt,Instrloop.thisRepN,Instrloop.thisTrialN,Instrloop.thisN,Instrloop.thisIndex,Instrloop.ran,FastInstructions,participant,date,expName,psychopyVersion,OS,frameRate,key_resp_2.keys,key_resp_2.corr,key_resp_2.rt,Advance_Resp.keys,Advance_Resp.rt,Practice.thisRepN,Practice.thisTrialN,Practice.thisN,Practice.thisIndex,Practice.ran,practicetext,practicecorrect,key_resp_3.keys,key_resp_3.rt,key_resp.keys,key_resp.corr,key_resp.rt,encouragekey.keys,FastLoop.thisRepN,FastLoop.thisTrialN,FastLoop.thisN,FastLoop.thisIndex,FastLoop.ran,Statement,Correct,encouragekey.rt,endstudykey.keys,endstudykey.rt
space,7.3688,0,0,0,0,1,"You will be shown a total of 80 statements pertaining to mathematics, science, and social concepts. Your task is to determine whether each statement is true or false as quickly as possible without sacrificing accuracy. Some statements will be difficult and some will be easier.  We do not expect you to know the correct answer for all 80 statements.  Press SPACE to Continue",2392,2022-04-06_19h22.10.881,ImplicitInfinitySC-FASTTASK,2021.2.3,Win32,60.43756799,,,,,,,,,,,,,,,,,,,,,,,,,,,,
space,8.2476,0,1,1,1,1,"Each statement will appear on your screen for up to 4 seconds and you will have those 4 seconds to decide if it is true or false before the next statement appears. There will be a beep to inform you that you have 2.5 seconds remaining. Please make sure the sound on your computer is turned on. If you do not respond, that answer will be considered incorrect and the task will move on to the next statement. Press SPACE to continue",2392,2022-04-06_19h22.10.881,ImplicitInfinitySC-FASTTASK,2021.2.3,Win32,60.43756799,,,,,,,,,,,,,,,,,,,,,,,,,,,,
space,11.4792,0,2,2,2,1,"If the statement is true, you will press the “F” key on your keyboard with your left pointer finger; if the statement is false, you will press the “J” key on your keyboard with your right pointer finger. Press SPACE to continue",2392,2022-04-06_19h22.10.881,ImplicitInfinitySC-FASTTASK,2021.2.3,Win32,60.43756799,,,,,,,,,,,,,,,,,,,,,,,,,,,,
space,2.6251,0,3,3,3,1,"Prior to completing the study, you will complete 10 practice trials to familiarize yourself with the task. Your performance on these trials will determine your participation in the following study. Press SPACE to continue.",2392,2022-04-06_19h22.10.881,ImplicitInfinitySC-FASTTASK,2021.2.3,Win32,60.43756799,,,,,,,,,,,,,,,,,,,,,,,,,,,,
space,1.2696,0,4,4,4,1,"If the statement is true, press the “F” key on your keyboard with your left pointer finger; if the statement is false, press the “J” key on your keyboard with your right pointer finger. Press SPACE to continue",2392,2022-04-06_19h22.10.881,ImplicitInfinitySC-FASTTASK,2021.2.3,Win32,60.43756799,,,,,,,,,,,,,,,,,,,,,,,,,,,,
,,,,,,,,2392,2022-04-06_19h22.10.881,ImplicitInfinitySC-FASTTASK,2021.2.3,Win32,60.43756799,j,1,1.8879,space,2.1803,0,0,0,7,1,The Earth is a star,j,,,,,,,,,,,,,,,,
,,,,,,,,2392,2022-04-06_19h22.10.881,ImplicitInfinitySC-FASTTASK,2021.2.3,Win32,60.43756799,f,1,2.4323,space,6.3596,0,1,1,1,1,Dinosaurs are extinct,f,,,,,,,,,,,,,,,,
,,,,,,,,2392,2022-04-06_19h22.10.881,ImplicitInfinitySC-FASTTASK,2021.2.3,Win32,60.43756799,f,0,2.2607,space,3.2967,0,2,2,6,1,Jupiter is the planet we live on,j,,,,,,,,,,,,,,,,
,,,,,,,,2392,2022-04-06_19h22.10.881,ImplicitInfinitySC-FASTTASK,2021.2.3,Win32,60.43756799,f,0,2.1424,space,1.4919,0,3,3,9,1,Humans cannot eat food,j,,,,,,,,,,,,,,,,
,,,,,,,,2392,2022-04-06_19h22.10.881,ImplicitInfinitySC-FASTTASK,2021.2.3,Win32,60.43756799,f,1,1.433,space,0.7339,0,4,4,2,1,Magenta is a color,f,,,,,,,,,,,,,,,,
,,,,,,,,2392,2022-04-06_19h22.10.881,ImplicitInfinitySC-FASTTASK,2021.2.3,Win32,60.43756799,f,1,1.1827,space,0.7047,0,5,5,3,1,A clock is used to tell time,f,,,,,,,,,,,,,,,,
,,,,,,,,2392,2022-04-06_19h22.10.881,ImplicitInfinitySC-FASTTASK,2021.2.3,Win32,60.43756799,,0,,space,0.8882,0,6,6,4,1,Humans cannot breathe water,f,,,,,,,,,,,,,,,,
,,,,,,,,2392,2022-04-06_19h22.10.881,ImplicitInfinitySC-FASTTASK,2021.2.3,Win32,60.43756799,j,1,2.2898,space,0.9233,0,7,7,5,1,A truck is an animal,j,,,,,,,,,,,,,,,,
,,,,,,,,2392,2022-04-06_19h22.10.881,ImplicitInfinitySC-FASTTASK,2021.2.3,Win32,60.43756799,f,1,1.2326,space,0.6001,0,8,8,0,1,A circle is a shape,f,,,,,,,,,,,,,,,,
,,,,,,,,2392,2022-04-06_19h22.10.881,ImplicitInfinitySC-FASTTASK,2021.2.3,Win32,60.43756799,j,1,1.4726,space,1.1855,0,9,9,8,1,Mississippi is a country,j,,,,,,,,,,,,,,,,
,,,,,,,,2392,2022-04-06_19h22.10.881,ImplicitInfinitySC-FASTTASK,2021.2.3,Win32,60.43756799,,,,space,0.6202,,,,,,,,space,1.801,f,1,1.9391,,0,0,0,53,1,Bricks can be put in a container,f,,,
,,,,,,,,2392,2022-04-06_19h22.10.881,ImplicitInfinitySC-FASTTASK,2021.2.3,Win32,60.43756799,,,,space,0.6642,,,,,,,,,,j,1,1.4117,,0,1,1,13,1,An inch can go on forever,j,,,
,,,,,,,,2392,2022-04-06_19h22.10.881,ImplicitInfinitySC-FASTTASK,2021.2.3,Win32,60.43756799,,,,space,0.4809,,,,,,,,,,f,1,1.6059,,0,2,2,2,1,A minute has an end,f,,,
,,,,,,,,2392,2022-04-06_19h22.10.881,ImplicitInfinitySC-FASTTASK,2021.2.3,Win32,60.43756799,,,,space,1.3696,,,,,,,,,,j,1,2.8778,,0,3,3,30,1,Space cannot always be further divided,j,,,
,,,,,,,,2392,2022-04-06_19h22.10.881,ImplicitInfinitySC-FASTTASK,2021.2.3,Win32,60.43756799,,,,space,0.448,,,,,,,,,,j,1,1.7187,,0,4,4,109,1,A square is a color,j,,,
,,,,,,,,2392,2022-04-06_19h22.10.881,ImplicitInfinitySC-FASTTASK,2021.2.3,Win32,60.43756799,,,,space,2.0198,,,,,,,,,,,0,,,0,5,5,67,1,Gravity has a molecular structure,j,,,
,,,,,,,,2392,2022-04-06_19h22.10.881,ImplicitInfinitySC-FASTTASK,2021.2.3,Win32,60.43756799,,,,space,0.4342,,,,,,,,,,j,1,1.55,,0,6,6,84,1,Silence is composed of matter,j,,,
,,,,,,,,2392,2022-04-06_19h22.10.881,ImplicitInfinitySC-FASTTASK,2021.2.3,Win32,60.43756799,,,,space,0.3595,,,,,,,,,,f,1,1.0378,,0,7,7,103,1,The United States is a country,f,,,
,,,,,,,,2392,2022-04-06_19h22.10.881,ImplicitInfinitySC-FASTTASK,2021.2.3,Win32,60.43756799,,,,space,0.3712,,,,,,,,,,f,1,1.5788,,0,8,8,96,1,Fish can swim in the ocean,f,,,
,,,,,,,,2392,2022-04-06_19h22.10.881,ImplicitInfinitySC-FASTTASK,2021.2.3,Win32,60.43756799,,,,space,0.274,,,,,,,,,,j,1,1.0467,,0,9,9,78,1,Hammers are alive,j,,,
,,,,,,,,2392,2022-04-06_19h22.10.881,ImplicitInfinitySC-FASTTASK,2021.2.3,Win32,60.43756799,,,,space,0.2815,,,,,,,,,,f,1,1.516,,0,10,10,90,1,A triangle is not an animal,f,,,
,,,,,,,,2392,2022-04-06_19h22.10.881,ImplicitInfinitySC-FASTTASK,2021.2.3,Win32,60.43756799,,,,space,0.32,,,,,,,,,,f,1,1.4137,,0,11,11,48,1,Crocodiles are alive,f,,,
,,,,,,,,2392,2022-04-06_19h22.10.881,ImplicitInfinitySC-FASTTASK,2021.2.3,Win32,60.43756799,,,,space,0.2441,,,,,,,,,,f,1,1.2091,,0,12,12,99,1,A motorcycle is a vehicle,f,,,
,,,,,,,,2392,2022-04-06_19h22.10.881,ImplicitInfinitySC-FASTTASK,2021.2.3,Win32,60.43756799,,,,space,0.2216,,,,,,,,,,j,1,1.146,,0,13,13,115,1,Yellow is an animal,j,,,
,,,,,,,,2392,2022-04-06_19h22.10.881,ImplicitInfinitySC-FASTTASK,2021.2.3,Win32,60.43756799,,,,space,0.2371,,,,,,,,,,f,1,2.0009,,0,14,14,76,1,Pollen has a molecular structure,f,,,
,,,,,,,,2392,2022-04-06_19h22.10.881,ImplicitInfinitySC-FASTTASK,2021.2.3,Win32,60.43756799,,,,space,0.2449,,,,,,,,,,f,1,1.7581,,0,15,15,23,1,Time can always be further divided,f,,,
,,,,,,,,2392,2022-04-06_19h22.10.881,ImplicitInfinitySC-FASTTASK,2021.2.3,Win32,60.43756799,,,,space,0.2433,,,,,,,,,,f,1,1.7755,,0,16,16,105,1,There are fifty states in the United States,f,,,
,,,,,,,,2392,2022-04-06_19h22.10.881,ImplicitInfinitySC-FASTTASK,2021.2.3,Win32,60.43756799,,,,space,0.2109,,,,,,,,,,j,1,1.3633,,0,17,17,66,1,Music has a molecular structure,j,,,
,,,,,,,,2392,2022-04-06_19h22.10.881,ImplicitInfinitySC-FASTTASK,2021.2.3,Win32,60.43756799,,,,space,0.3587,,,,,,,,,,f,1,1.206,,0,18,18,37,1,Numbers can go on forever,f,,,
,,,,,,,,2392,2022-04-06_19h22.10.881,ImplicitInfinitySC-FASTTASK,2021.2.3,Win32,60.43756799,,,,space,0.2187,,,,,,,,,,j,1,1.3395,,0,19,19,59,1,Comets are alive,j,,,
,,,,,,,,2392,2022-04-06_19h22.10.881,ImplicitInfinitySC-FASTTASK,2021.2.3,Win32,60.43756799,,,,space,0.1884,,,,,,,,,,j,1,1.5623,,0,20,20,20,1,Time cannot go on forever,j,,,
,,,,,,,,2392,2022-04-06_19h22.10.881,ImplicitInfinitySC-FASTTASK,2021.2.3,Win32,60.43756799,,,,space,0.4042,,,,,,,,,,j,0,1.5546,,0,21,21,4,1,A minute cannot go on forever,f,,,
,,,,,,,,2392,2022-04-06_19h22.10.881,ImplicitInfinitySC-FASTTASK,2021.2.3,Win32,60.43756799,,,,space,0.2392,,,,,,,,,,f,1,2.1294,,0,22,22,54,1,Dumbells are composed of matter,f,,,
,,,,,,,,2392,2022-04-06_19h22.10.881,ImplicitInfinitySC-FASTTASK,2021.2.3,Win32,60.43756799,,,,space,0.2003,,,,,,,,,,j,1,1.7212,,0,23,23,1,1,A minute is infinite,j,,,
,,,,,,,,2392,2022-04-06_19h22.10.881,ImplicitInfinitySC-FASTTASK,2021.2.3,Win32,60.43756799,,,,space,0.2184,,,,,,,,,,j,1,2.4249,,0,24,24,36,1,Numbers cannot go on forever,j,,,
,,,,,,,,2392,2022-04-06_19h22.10.881,ImplicitInfinitySC-FASTTASK,2021.2.3,Win32,60.43756799,,,,space,0.1761,,,,,,,,,,j,1,1.5584,,0,25,25,110,1,A triangle is an animal,j,,,
,,,,,,,,2392,2022-04-06_19h22.10.881,ImplicitInfinitySC-FASTTASK,2021.2.3,Win32,60.43756799,,,,space,0.1777,,,,,,,,,,j,1,0.9657,,0,26,26,123,1,Mississippi is a country,j,,,
,,,,,,,,2392,2022-04-06_19h22.10.881,ImplicitInfinitySC-FASTTASK,2021.2.3,Win32,60.43756799,,,,space,0.242,,,,,,,,,,f,1,1.0507,,0,27,27,95,1,Yellow is a color,f,,,
,,,,,,,,2392,2022-04-06_19h22.10.881,ImplicitInfinitySC-FASTTASK,2021.2.3,Win32,60.43756799,,,,space,0.1947,,,,,,,,,,f,1,0.8275,,0,28,28,97,1,Dolphins can swim in the ocean,f,,,
,,,,,,,,2392,2022-04-06_19h22.10.881,ImplicitInfinitySC-FASTTASK,2021.2.3,Win32,60.43756799,,,,space,0.2419,,,,,,,,,,f,1,1.8869,,0,29,29,47,1,The number five can always be further divided,f,,,
,,,,,,,,2392,2022-04-06_19h22.10.881,ImplicitInfinitySC-FASTTASK,2021.2.3,Win32,60.43756799,,,,space,0.1856,,,,,,,,,,f,1,1.1156,,0,30,30,92,1,Dinosaurs are extinct,f,,,
,,,,,,,,2392,2022-04-06_19h22.10.881,ImplicitInfinitySC-FASTTASK,2021.2.3,Win32,60.43756799,,,,space,0.1569,,,,,,,,,,j,1,2.136,,0,31,31,14,1,An inch cannot always be further divided,j,,,
,,,,,,,,2392,2022-04-06_19h22.10.881,ImplicitInfinitySC-FASTTASK,2021.2.3,Win32,60.43756799,,,,space,0.1822,,,,,,,,,,f,1,1.4406,,0,32,32,19,1,Time is endless,f,,,
,,,,,,,,2392,2022-04-06_19h22.10.881,ImplicitInfinitySC-FASTTASK,2021.2.3,Win32,60.43756799,,,,space,0.2401,,,,,,,,,,f,1,1.6004,,0,33,33,71,1,Oaks reproduce,f,,,
,,,,,,,,2392,2022-04-06_19h22.10.881,ImplicitInfinitySC-FASTTASK,2021.2.3,Win32,60.43756799,,,,space,0.1851,,,,,,,,,,j,1,2.2898,,0,34,34,9,1,An inch is infinite,j,,,
,,,,,,,,2392,2022-04-06_19h22.10.881,ImplicitInfinitySC-FASTTASK,2021.2.3,Win32,60.43756799,,,,space,0.1548,,,,,,,,,,f,1,1.4974,,0,35,35,40,1,The number five is finite,f,,,
,,,,,,,,2392,2022-04-06_19h22.10.881,ImplicitInfinitySC-FASTTASK,2021.2.3,Win32,60.43756799,,,,space,0.1814,,,,,,,,,,f,1,1.3692,,0,36,36,101,1,Jupiter is in our solar system,f,,,
,,,,,,,,2392,2022-04-06_19h22.10.881,ImplicitInfinitySC-FASTTASK,2021.2.3,Win32,60.43756799,,,,space,0.169,,,,,,,,,,j,1,1.3776,,0,37,37,24,1,Space is finite,j,,,
,,,,,,,,2392,2022-04-06_19h22.10.881,ImplicitInfinitySC-FASTTASK,2021.2.3,Win32,60.43756799,,,,space,0.1472,,,,,,,,,,j,1,1.3466,,0,38,38,114,1,Lightbulbs are made of clay,j,,,
,,,,,,,,2392,2022-04-06_19h22.10.881,ImplicitInfinitySC-FASTTASK,2021.2.3,Win32,60.43756799,,,,space,0.167,,,,,,,,,,j,1,1.3226,,0,39,39,63,1,Color can be put in a container,j,,,
,,,,,,,,2392,2022-04-06_19h22.10.881,ImplicitInfinitySC-FASTTASK,2021.2.3,Win32,60.43756799,,,,space,0.9925,,,,,,,,,,j,1,1.4452,space,0,40,40,124,1,The president of the United States is Oprah,j,1.1054,,
,,,,,,,,2392,2022-04-06_19h22.10.881,ImplicitInfinitySC-FASTTASK,2021.2.3,Win32,60.43756799,,,,space,0.1971,,,,,,,,,,f,1,1.0581,,0,41,41,89,1,A square is a shape,f,,,
,,,,,,,,2392,2022-04-06_19h22.10.881,ImplicitInfinitySC-FASTTASK,2021.2.3,Win32,60.43756799,,,,space,0.1647,,,,,,,,,,j,1,1.4458,,0,42,42,87,1,Dreams have a molecular structure,j,,,
,,,,,,,,2392,2022-04-06_19h22.10.881,ImplicitInfinitySC-FASTTASK,2021.2.3,Win32,60.43756799,,,,space,0.1644,,,,,,,,,,j,1,2.0124,,0,43,43,65,1,Shadows are composed of matter,j,,,
,,,,,,,,2392,2022-04-06_19h22.10.881,ImplicitInfinitySC-FASTTASK,2021.2.3,Win32,60.43756799,,,,space,0.1814,,,,,,,,,,j,1,1.3726,,0,44,44,81,1,Tables reproduce,j,,,
,,,,,,,,2392,2022-04-06_19h22.10.881,ImplicitInfinitySC-FASTTASK,2021.2.3,Win32,60.43756799,,,,space,0.0005,,,,,,,,,,j,1,1.7125,,0,45,45,125,1,There are ninty states in the United States,j,,,
,,,,,,,,2392,2022-04-06_19h22.10.881,ImplicitInfinitySC-FASTTASK,2021.2.3,Win32,60.43756799,,,,space,0.1752,,,,,,,,,,f,1,1.2634,,0,46,46,51,1,Tigers reproduce,f,,,
,,,,,,,,2392,2022-04-06_19h22.10.881,ImplicitInfinitySC-FASTTASK,2021.2.3,Win32,60.43756799,,,,space,0.2199,,,,,,,,,,f,1,0.8183,,0,47,47,49,1,Pelicans are alive,f,,,
,,,,,,,,2392,2022-04-06_19h22.10.881,ImplicitInfinitySC-FASTTASK,2021.2.3,Win32,60.43756799,,,,space,0.1648,,,,,,,,,,f,1,1.0633,,0,48,48,68,1,Algae is alive,f,,,
,,,,,,,,2392,2022-04-06_19h22.10.881,ImplicitInfinitySC-FASTTASK,2021.2.3,Win32,60.43756799,,,,space,0.1994,,,,,,,,,,j,1,1.1349,,0,49,49,113,1,Magenta is a shape,j,,,
,,,,,,,,2392,2022-04-06_19h22.10.881,ImplicitInfinitySC-FASTTASK,2021.2.3,Win32,60.43756799,,,,space,0.1482,,,,,,,,,,f,1,1.0179,,0,50,50,21,1,Time can go on forever,f,,,
,,,,,,,,2392,2022-04-06_19h22.10.881,ImplicitInfinitySC-FASTTASK,2021.2.3,Win32,60.43756799,,,,space,0.1443,,,,,,,,,,f,1,0.9538,,0,51,51,107,1,A pencil is used to write,f,,,
,,,,,,,,2392,2022-04-06_19h22.10.881,ImplicitInfinitySC-FASTTASK,2021.2.3,Win32,60.43756799,,,,space,0.1531,,,,,,,,,,f,1,1.247,,0,52,52,15,1,An inch can be always further divided,f,,,
,,,,,,,,2392,2022-04-06_19h22.10.881,ImplicitInfinitySC-FASTTASK,2021.2.3,Win32,60.43756799,,,,space,0.1377,,,,,,,,,,f,1,0.814,,0,53,53,94,1,Orange is a color,f,,,
,,,,,,,,2392,2022-04-06_19h22.10.881,ImplicitInfinitySC-FASTTASK,2021.2.3,Win32,60.43756799,,,,space,0.1503,,,,,,,,,,f,1,2.1216,,0,54,54,69,1,Bacteria are alive,f,,,
,,,,,,,,2392,2022-04-06_19h22.10.881,ImplicitInfinitySC-FASTTASK,2021.2.3,Win32,60.43756799,,,,space,0.1395,,,,,,,,,,j,1,1.8117,,0,55,55,46,1,The number five cannot always be further divided,j,,,
,,,,,,,,2392,2022-04-06_19h22.10.881,ImplicitInfinitySC-FASTTASK,2021.2.3,Win32,60.43756799,,,,space,0.2195,,,,,,,,,,j,1,1.0592,,0,56,56,62,1,Helicopters reproduce,j,,,
,,,,,,,,2392,2022-04-06_19h22.10.881,ImplicitInfinitySC-FASTTASK,2021.2.3,Win32,60.43756799,,,,space,0.1444,,,,,,,,,,f,1,0.7873,,0,57,57,91,1,A circle is a shape,f,,,
,,,,,,,,2392,2022-04-06_19h22.10.881,ImplicitInfinitySC-FASTTASK,2021.2.3,Win32,60.43756799,,,,space,0.1649,,,,,,,,,,j,1,1.0059,,0,58,58,117,1,Dolphins cannot swim in the ocean,j,,,
,,,,,,,,2392,2022-04-06_19h22.10.881,ImplicitInfinitySC-FASTTASK,2021.2.3,Win32,60.43756799,,,,space,0.1867,,,,,,,,,,f,1,1.5262,,0,59,59,8,1,An inch is finite,f,,,
,,,,,,,,2392,2022-04-06_19h22.10.881,ImplicitInfinitySC-FASTTASK,2021.2.3,Win32,60.43756799,,,,space,0.1493,,,,,,,,,,f,1,0.7307,,0,60,60,52,1,Frogs reproduce,f,,,
,,,,,,,,2392,2022-04-06_19h22.10.881,ImplicitInfinitySC-FASTTASK,2021.2.3,Win32,60.43756799,,,,space,0.1328,,,,,,,,,,f,1,1.0636,,0,61,61,29,1,Space can go on forever,f,,,
,,,,,,,,2392,2022-04-06_19h22.10.881,ImplicitInfinitySC-FASTTASK,2021.2.3,Win32,60.43756799,,,,space,0.1981,,,,,,,,,,f,1,0.963,,0,62,62,104,1,The United States has a president,f,,,
,,,,,,,,2392,2022-04-06_19h22.10.881,ImplicitInfinitySC-FASTTASK,2021.2.3,Win32,60.43756799,,,,space,0.1413,,,,,,,,,,f,1,1.114,,0,63,63,31,1,Space can always be further divided,f,,,
,,,,,,,,2392,2022-04-06_19h22.10.881,ImplicitInfinitySC-FASTTASK,2021.2.3,Win32,60.43756799,,,,space,0.17,,,,,,,,,,j,1,1.2237,,0,64,64,127,1,A zebra is used to write,j,,,
,,,,,,,,2392,2022-04-06_19h22.10.881,ImplicitInfinitySC-FASTTASK,2021.2.3,Win32,60.43756799,,,,space,0.1619,,,,,,,,,,j,1,1.2527,,0,65,65,43,1,The number five is endless,j,,,
,,,,,,,,2392,2022-04-06_19h22.10.881,ImplicitInfinitySC-FASTTASK,2021.2.3,Win32,60.43756799,,,,space,0.221,,,,,,,,,,f,1,0.9675,,0,66,66,102,1,The Earth is a planet,f,,,
,,,,,,,,2392,2022-04-06_19h22.10.881,ImplicitInfinitySC-FASTTASK,2021.2.3,Win32,60.43756799,,,,space,0.1359,,,,,,,,,,j,1,1.4842,,0,67,67,6,1,A minute cannot always be further divided,j,,,
,,,,,,,,2392,2022-04-06_19h22.10.881,ImplicitInfinitySC-FASTTASK,2021.2.3,Win32,60.43756799,,,,space,0.1431,,,,,,,,,,j,1,1.1631,,0,68,68,3,1,A minute is endless,j,,,
,,,,,,,,2392,2022-04-06_19h22.10.881,ImplicitInfinitySC-FASTTASK,2021.2.3,Win32,60.43756799,,,,space,0.1607,,,,,,,,,,f,1,1.349,,0,69,69,35,1,Numbers are endless,f,,,
,,,,,,,,2392,2022-04-06_19h22.10.881,ImplicitInfinitySC-FASTTASK,2021.2.3,Win32,60.43756799,,,,space,0.1486,,,,,,,,,,f,1,1.3769,,0,70,70,10,1,An inch has an end,f,,,
,,,,,,,,2392,2022-04-06_19h22.10.881,ImplicitInfinitySC-FASTTASK,2021.2.3,Win32,60.43756799,,,,space,0.1582,,,,,,,,,,f,1,1.5662,,0,71,71,17,1,Time is infinite,f,,,
,,,,,,,,2392,2022-04-06_19h22.10.881,ImplicitInfinitySC-FASTTASK,2021.2.3,Win32,60.43756799,,,,space,0.8976,,,,,,,,,,f,0,0.8978,,0,72,72,122,1,The Earth is a star,j,,,
,,,,,,,,2392,2022-04-06_19h22.10.881,ImplicitInfinitySC-FASTTASK,2021.2.3,Win32,60.43756799,,,,space,0.1415,,,,,,,,,,j,1,2.2779,,0,73,73,34,1,Numbers have an end,j,,,
,,,,,,,,2392,2022-04-06_19h22.10.881,ImplicitInfinitySC-FASTTASK,2021.2.3,Win32,60.43756799,,,,space,0.1236,,,,,,,,,,f,1,2.1785,,0,74,74,12,1,An inch cannot go on forever,f,,,
,,,,,,,,2392,2022-04-06_19h22.10.881,ImplicitInfinitySC-FASTTASK,2021.2.3,Win32,60.43756799,,,,space,0.157,,,,,,,,,,j,1,1.3721,,0,75,75,83,1,Songs can be put in a container,j,,,
,,,,,,,,2392,2022-04-06_19h22.10.881,ImplicitInfinitySC-FASTTASK,2021.2.3,Win32,60.43756799,,,,space,0.2062,,,,,,,,,,f,1,1.4541,,0,76,76,106,1,Humans cannot breathe water,f,,,
,,,,,,,,2392,2022-04-06_19h22.10.881,ImplicitInfinitySC-FASTTASK,2021.2.3,Win32,60.43756799,,,,space,0.155,,,,,,,,,,j,1,1.5063,,0,77,77,26,1,Space has an end,j,,,
,,,,,,,,2392,2022-04-06_19h22.10.881,ImplicitInfinitySC-FASTTASK,2021.2.3,Win32,60.43756799,,,,space,0.2104,,,,,,,,,,j,1,1.3869,,0,78,78,126,1,Humans can breathe water,j,,,
,,,,,,,,2392,2022-04-06_19h22.10.881,ImplicitInfinitySC-FASTTASK,2021.2.3,Win32,60.43756799,,,,space,0.1342,,,,,,,,,,j,1,0.9426,,0,79,79,120,1,A truck is an animal,j,,,
,,,,,,,,2392,2022-04-06_19h22.10.881,ImplicitInfinitySC-FASTTASK,2021.2.3,Win32,60.43756799,,,,space,0.1327,,,,,,,,,,f,0,1.702,,0,80,80,108,1,This sentence is written in Spanish,j,,,
,,,,,,,,2392,2022-04-06_19h22.10.881,ImplicitInfinitySC-FASTTASK,2021.2.3,Win32,60.43756799,,,,,,,,,,,,,,,,,,,,,,,,,,,space,5.2046
