INSTRESP.keys,INSTRESP.rt,Instrloop.thisRepN,Instrloop.thisTrialN,Instrloop.thisN,Instrloop.thisIndex,Instrloop.ran,FastInstructions,participant,date,expName,psychopyVersion,OS,frameRate,key_resp_2.keys,key_resp_2.corr,key_resp_2.rt,Advance_Resp.keys,Advance_Resp.rt,Practice.thisRepN,Practice.thisTrialN,Practice.thisN,Practice.thisIndex,Practice.ran,practicetext,practicecorrect,key_resp_3.keys,key_resp_3.rt,key_resp.keys,key_resp.corr,key_resp.rt,encouragekey.keys,FastLoop.thisRepN,FastLoop.thisTrialN,FastLoop.thisN,FastLoop.thisIndex,FastLoop.ran,Statement,Correct,encouragekey.rt,endstudykey.keys,endstudykey.rt
space,8.939,0,0,0,0,1,"You will be shown a total of 80 statements pertaining to mathematics, science, and social concepts. Your task is to determine whether each statement is true or false as quickly as possible without sacrificing accuracy. Some statements will be difficult and some will be easier.  We do not expect you to know the correct answer for all 80 statements.  Press SPACE to Continue",2501,2022-04-06_16h11.23.758,ImplicitInfinitySC-FASTTASK,2021.2.3,Win32,240.3846154,,,,,,,,,,,,,,,,,,,,,,,,,,,,
space,8.365,0,1,1,1,1,"Each statement will appear on your screen for up to 4 seconds and you will have those 4 seconds to decide if it is true or false before the next statement appears. There will be a beep to inform you that you have 2.5 seconds remaining. Please make sure the sound on your computer is turned on. If you do not respond, that answer will be considered incorrect and the task will move on to the next statement. Press SPACE to continue",2501,2022-04-06_16h11.23.758,ImplicitInfinitySC-FASTTASK,2021.2.3,Win32,240.3846154,,,,,,,,,,,,,,,,,,,,,,,,,,,,
space,14.962,0,2,2,2,1,"If the statement is true, you will press the “F” key on your keyboard with your left pointer finger; if the statement is false, you will press the “J” key on your keyboard with your right pointer finger. Press SPACE to continue",2501,2022-04-06_16h11.23.758,ImplicitInfinitySC-FASTTASK,2021.2.3,Win32,240.3846154,,,,,,,,,,,,,,,,,,,,,,,,,,,,
space,7.669,0,3,3,3,1,"Prior to completing the study, you will complete 10 practice trials to familiarize yourself with the task. Your performance on these trials will determine your participation in the following study. Press SPACE to continue.",2501,2022-04-06_16h11.23.758,ImplicitInfinitySC-FASTTASK,2021.2.3,Win32,240.3846154,,,,,,,,,,,,,,,,,,,,,,,,,,,,
space,0.971,0,4,4,4,1,"If the statement is true, press the “F” key on your keyboard with your left pointer finger; if the statement is false, press the “J” key on your keyboard with your right pointer finger. Press SPACE to continue",2501,2022-04-06_16h11.23.758,ImplicitInfinitySC-FASTTASK,2021.2.3,Win32,240.3846154,,,,,,,,,,,,,,,,,,,,,,,,,,,,
,,,,,,,,2501,2022-04-06_16h11.23.758,ImplicitInfinitySC-FASTTASK,2021.2.3,Win32,240.3846154,f,1,1.482,space,0.749,0,0,0,1,1,Dinosaurs are extinct,f,,,,,,,,,,,,,,,,
,,,,,,,,2501,2022-04-06_16h11.23.758,ImplicitInfinitySC-FASTTASK,2021.2.3,Win32,240.3846154,f,1,1.535,space,7.397,0,1,1,0,1,A circle is a shape,f,,,,,,,,,,,,,,,,
,,,,,,,,2501,2022-04-06_16h11.23.758,ImplicitInfinitySC-FASTTASK,2021.2.3,Win32,240.3846154,j,1,1.123,space,0.828,0,2,2,9,1,Humans cannot eat food,j,,,,,,,,,,,,,,,,
,,,,,,,,2501,2022-04-06_16h11.23.758,ImplicitInfinitySC-FASTTASK,2021.2.3,Win32,240.3846154,f,1,0.972,space,0.386,0,3,3,2,1,Magenta is a color,f,,,,,,,,,,,,,,,,
,,,,,,,,2501,2022-04-06_16h11.23.758,ImplicitInfinitySC-FASTTASK,2021.2.3,Win32,240.3846154,j,1,0.972,space,0.332,0,4,4,7,1,The Earth is a star,j,,,,,,,,,,,,,,,,
,,,,,,,,2501,2022-04-06_16h11.23.758,ImplicitInfinitySC-FASTTASK,2021.2.3,Win32,240.3846154,j,1,1.099,space,0.368,0,5,5,5,1,A truck is an animal,j,,,,,,,,,,,,,,,,
,,,,,,,,2501,2022-04-06_16h11.23.758,ImplicitInfinitySC-FASTTASK,2021.2.3,Win32,240.3846154,j,1,1.511,space,0.455,0,6,6,6,1,Jupiter is the planet we live on,j,,,,,,,,,,,,,,,,
,,,,,,,,2501,2022-04-06_16h11.23.758,ImplicitInfinitySC-FASTTASK,2021.2.3,Win32,240.3846154,j,1,1.097,space,0.444,0,7,7,8,1,Mississippi is a country,j,,,,,,,,,,,,,,,,
,,,,,,,,2501,2022-04-06_16h11.23.758,ImplicitInfinitySC-FASTTASK,2021.2.3,Win32,240.3846154,f,1,1.857,space,1.462,0,8,8,4,1,Humans cannot breathe water,f,,,,,,,,,,,,,,,,
,,,,,,,,2501,2022-04-06_16h11.23.758,ImplicitInfinitySC-FASTTASK,2021.2.3,Win32,240.3846154,f,1,1.193,space,0.469,0,9,9,3,1,A clock is used to tell time,f,,,,,,,,,,,,,,,,
,,,,,,,,2501,2022-04-06_16h11.23.758,ImplicitInfinitySC-FASTTASK,2021.2.3,Win32,240.3846154,,,,space,0.388,,,,,,,,space,3.26,f,1,1.173,,0,0,0,107,1,A pencil is used to write,f,,,
,,,,,,,,2501,2022-04-06_16h11.23.758,ImplicitInfinitySC-FASTTASK,2021.2.3,Win32,240.3846154,,,,space,0.331,,,,,,,,,,f,1,0.93,,0,1,1,89,1,A square is a shape,f,,,
,,,,,,,,2501,2022-04-06_16h11.23.758,ImplicitInfinitySC-FASTTASK,2021.2.3,Win32,240.3846154,,,,space,1.087,,,,,,,,,,f,1,1.282,,0,2,2,90,1,A triangle is not an animal,f,,,
,,,,,,,,2501,2022-04-06_16h11.23.758,ImplicitInfinitySC-FASTTASK,2021.2.3,Win32,240.3846154,,,,space,0.405,,,,,,,,,,j,1,1.419,,0,3,3,116,1,Fish cannot swim in the ocean,j,,,
,,,,,,,,2501,2022-04-06_16h11.23.758,ImplicitInfinitySC-FASTTASK,2021.2.3,Win32,240.3846154,,,,space,0.348,,,,,,,,,,j,1,1.08,,0,4,4,111,1,A circle is a flavor,j,,,
,,,,,,,,2501,2022-04-06_16h11.23.758,ImplicitInfinitySC-FASTTASK,2021.2.3,Win32,240.3846154,,,,space,0.397,,,,,,,,,,j,1,1.481,,0,5,5,5,1,A minute can go on forever,j,,,
,,,,,,,,2501,2022-04-06_16h11.23.758,ImplicitInfinitySC-FASTTASK,2021.2.3,Win32,240.3846154,,,,space,0.533,,,,,,,,,,f,1,1.648,,0,6,6,56,1,Diamonds have a molecular structure,f,,,
,,,,,,,,2501,2022-04-06_16h11.23.758,ImplicitInfinitySC-FASTTASK,2021.2.3,Win32,240.3846154,,,,space,0.364,,,,,,,,,,f,1,0.992,,0,7,7,48,1,Crocodiles are alive,f,,,
,,,,,,,,2501,2022-04-06_16h11.23.758,ImplicitInfinitySC-FASTTASK,2021.2.3,Win32,240.3846154,,,,space,0.439,,,,,,,,,,f,1,1.57,,0,8,8,53,1,Bricks can be put in a container,f,,,
,,,,,,,,2501,2022-04-06_16h11.23.758,ImplicitInfinitySC-FASTTASK,2021.2.3,Win32,240.3846154,,,,space,2.998,,,,,,,,,,j,0,1.536,,0,9,9,40,1,The number five is finite,f,,,
,,,,,,,,2501,2022-04-06_16h11.23.758,ImplicitInfinitySC-FASTTASK,2021.2.3,Win32,240.3846154,,,,space,0.348,,,,,,,,,,j,1,1.018,,0,10,10,62,1,Helicopters reproduce,j,,,
,,,,,,,,2501,2022-04-06_16h11.23.758,ImplicitInfinitySC-FASTTASK,2021.2.3,Win32,240.3846154,,,,space,0.493,,,,,,,,,,f,1,1.426,,0,11,11,88,1,This sentence is written in English,f,,,
,,,,,,,,2501,2022-04-06_16h11.23.758,ImplicitInfinitySC-FASTTASK,2021.2.3,Win32,240.3846154,,,,space,0.335,,,,,,,,,,j,1,1.241,,0,12,12,117,1,Dolphins cannot swim in the ocean,j,,,
,,,,,,,,2501,2022-04-06_16h11.23.758,ImplicitInfinitySC-FASTTASK,2021.2.3,Win32,240.3846154,,,,space,1.166,,,,,,,,,,j,1,1.969,,0,13,13,22,1,Time cannot always be further divided,j,,,
,,,,,,,,2501,2022-04-06_16h11.23.758,ImplicitInfinitySC-FASTTASK,2021.2.3,Win32,240.3846154,,,,space,0.468,,,,,,,,,,f,1,1.071,,0,14,14,103,1,The United States is a country,f,,,
,,,,,,,,2501,2022-04-06_16h11.23.758,ImplicitInfinitySC-FASTTASK,2021.2.3,Win32,240.3846154,,,,space,0.869,,,,,,,,,,j,1,1.896,,0,15,15,46,1,The number five cannot always be further divided,j,,,
,,,,,,,,2501,2022-04-06_16h11.23.758,ImplicitInfinitySC-FASTTASK,2021.2.3,Win32,240.3846154,,,,space,0.446,,,,,,,,,,j,0,1.704,,0,16,16,42,1,The number five has an end,f,,,
,,,,,,,,2501,2022-04-06_16h11.23.758,ImplicitInfinitySC-FASTTASK,2021.2.3,Win32,240.3846154,,,,space,0.256,,,,,,,,,,j,1,0.937,,0,17,17,61,1,Sailboats reproduce,j,,,
,,,,,,,,2501,2022-04-06_16h11.23.758,ImplicitInfinitySC-FASTTASK,2021.2.3,Win32,240.3846154,,,,space,0.251,,,,,,,,,,j,1,1.026,,0,18,18,112,1,Dinosaurs are not extinct,j,,,
,,,,,,,,2501,2022-04-06_16h11.23.758,ImplicitInfinitySC-FASTTASK,2021.2.3,Win32,240.3846154,,,,space,0.23,,,,,,,,,,f,1,0.81,,0,19,19,49,1,Pelicans are alive,f,,,
,,,,,,,,2501,2022-04-06_16h11.23.758,ImplicitInfinitySC-FASTTASK,2021.2.3,Win32,240.3846154,,,,space,0.299,,,,,,,,,,f,1,1.218,,0,20,20,73,1,Bubbles can be put in a container,f,,,
,,,,,,,,2501,2022-04-06_16h11.23.758,ImplicitInfinitySC-FASTTASK,2021.2.3,Win32,240.3846154,,,,space,0.535,,,,,,,,,,j,1,1.571,,0,21,21,65,1,Shadows are composed of matter,j,,,
,,,,,,,,2501,2022-04-06_16h11.23.758,ImplicitInfinitySC-FASTTASK,2021.2.3,Win32,240.3846154,,,,space,0.372,,,,,,,,,,f,1,1.603,,0,22,22,0,1,A minute is finite,f,,,
,,,,,,,,2501,2022-04-06_16h11.23.758,ImplicitInfinitySC-FASTTASK,2021.2.3,Win32,240.3846154,,,,space,0.285,,,,,,,,,,j,1,0.962,,0,23,23,109,1,A square is a color,j,,,
,,,,,,,,2501,2022-04-06_16h11.23.758,ImplicitInfinitySC-FASTTASK,2021.2.3,Win32,240.3846154,,,,space,0.324,,,,,,,,,,f,1,0.965,,0,24,24,51,1,Tigers reproduce,f,,,
,,,,,,,,2501,2022-04-06_16h11.23.758,ImplicitInfinitySC-FASTTASK,2021.2.3,Win32,240.3846154,,,,space,0.277,,,,,,,,,,j,1,0.764,,0,25,25,120,1,A truck is an animal,j,,,
,,,,,,,,2501,2022-04-06_16h11.23.758,ImplicitInfinitySC-FASTTASK,2021.2.3,Win32,240.3846154,,,,space,0.276,,,,,,,,,,f,1,1.122,,0,26,26,29,1,Space can go on forever,f,,,
,,,,,,,,2501,2022-04-06_16h11.23.758,ImplicitInfinitySC-FASTTASK,2021.2.3,Win32,240.3846154,,,,space,0.247,,,,,,,,,,j,1,1.258,,0,27,27,85,1,Thoughts are composed of matter,j,,,
,,,,,,,,2501,2022-04-06_16h11.23.758,ImplicitInfinitySC-FASTTASK,2021.2.3,Win32,240.3846154,,,,space,0.268,,,,,,,,,,f,0,1.594,,0,28,28,18,1,Time has an end,j,,,
,,,,,,,,2501,2022-04-06_16h11.23.758,ImplicitInfinitySC-FASTTASK,2021.2.3,Win32,240.3846154,,,,space,0.264,,,,,,,,,,f,0,1.065,,0,29,29,34,1,Numbers have an end,j,,,
,,,,,,,,2501,2022-04-06_16h11.23.758,ImplicitInfinitySC-FASTTASK,2021.2.3,Win32,240.3846154,,,,space,0.278,,,,,,,,,,f,1,0.864,,0,30,30,102,1,The Earth is a planet,f,,,
,,,,,,,,2501,2022-04-06_16h11.23.758,ImplicitInfinitySC-FASTTASK,2021.2.3,Win32,240.3846154,,,,space,0.301,,,,,,,,,,j,1,1.003,,0,31,31,60,1,Robots need nutrients,j,,,
,,,,,,,,2501,2022-04-06_16h11.23.758,ImplicitInfinitySC-FASTTASK,2021.2.3,Win32,240.3846154,,,,space,0.235,,,,,,,,,,j,1,1.051,,0,32,32,26,1,Space has an end,j,,,
,,,,,,,,2501,2022-04-06_16h11.23.758,ImplicitInfinitySC-FASTTASK,2021.2.3,Win32,240.3846154,,,,space,0.247,,,,,,,,,,j,1,0.914,,0,33,33,123,1,Mississippi is a country,j,,,
,,,,,,,,2501,2022-04-06_16h11.23.758,ImplicitInfinitySC-FASTTASK,2021.2.3,Win32,240.3846154,,,,space,0.22,,,,,,,,,,f,1,0.792,,0,34,34,69,1,Bacteria are alive,f,,,
,,,,,,,,2501,2022-04-06_16h11.23.758,ImplicitInfinitySC-FASTTASK,2021.2.3,Win32,240.3846154,,,,space,0.302,,,,,,,,,,j,1,1.076,,0,35,35,13,1,An inch can go on forever,j,,,
,,,,,,,,2501,2022-04-06_16h11.23.758,ImplicitInfinitySC-FASTTASK,2021.2.3,Win32,240.3846154,,,,space,0.197,,,,,,,,,,f,1,1.064,,0,36,36,76,1,Pollen has a molecular structure,f,,,
,,,,,,,,2501,2022-04-06_16h11.23.758,ImplicitInfinitySC-FASTTASK,2021.2.3,Win32,240.3846154,,,,space,0.246,,,,,,,,,,j,1,1.394,,0,37,37,1,1,A minute is infinite,j,,,
,,,,,,,,2501,2022-04-06_16h11.23.758,ImplicitInfinitySC-FASTTASK,2021.2.3,Win32,240.3846154,,,,space,0.198,,,,,,,,,,j,1,1.292,,0,38,38,127,1,A zebra is used to write,j,,,
,,,,,,,,2501,2022-04-06_16h11.23.758,ImplicitInfinitySC-FASTTASK,2021.2.3,Win32,240.3846154,,,,space,0.253,,,,,,,,,,j,1,1.419,,0,39,39,86,1,Words have a molecular structure,j,,,
,,,,,,,,2501,2022-04-06_16h11.23.758,ImplicitInfinitySC-FASTTASK,2021.2.3,Win32,240.3846154,,,,space,0.765,,,,,,,,,,f,1,0.844,space,0,40,40,68,1,Algae is alive,f,0.773,,
,,,,,,,,2501,2022-04-06_16h11.23.758,ImplicitInfinitySC-FASTTASK,2021.2.3,Win32,240.3846154,,,,space,0.271,,,,,,,,,,j,1,1.266,,0,41,41,126,1,Humans can breathe water,j,,,
,,,,,,,,2501,2022-04-06_16h11.23.758,ImplicitInfinitySC-FASTTASK,2021.2.3,Win32,240.3846154,,,,space,0.284,,,,,,,,,,j,1,1.524,,0,42,42,28,1,Space cannot go on forever,j,,,
,,,,,,,,2501,2022-04-06_16h11.23.758,ImplicitInfinitySC-FASTTASK,2021.2.3,Win32,240.3846154,,,,space,0.278,,,,,,,,,,j,1,1.169,,0,43,43,108,1,This sentence is written in Spanish,j,,,
,,,,,,,,2501,2022-04-06_16h11.23.758,ImplicitInfinitySC-FASTTASK,2021.2.3,Win32,240.3846154,,,,space,0.477,,,,,,,,,,f,1,1.268,,0,44,44,97,1,Dolphins can swim in the ocean,f,,,
,,,,,,,,2501,2022-04-06_16h11.23.758,ImplicitInfinitySC-FASTTASK,2021.2.3,Win32,240.3846154,,,,space,0.276,,,,,,,,,,f,1,1.306,,0,45,45,75,1,Frost is composed of matter,f,,,
,,,,,,,,2501,2022-04-06_16h11.23.758,ImplicitInfinitySC-FASTTASK,2021.2.3,Win32,240.3846154,,,,space,0.319,,,,,,,,,,f,1,0.857,,0,46,46,95,1,Yellow is a color,f,,,
,,,,,,,,2501,2022-04-06_16h11.23.758,ImplicitInfinitySC-FASTTASK,2021.2.3,Win32,240.3846154,,,,space,0.286,,,,,,,,,,j,1,1.386,,0,47,47,9,1,An inch is infinite,j,,,
,,,,,,,,2501,2022-04-06_16h11.23.758,ImplicitInfinitySC-FASTTASK,2021.2.3,Win32,240.3846154,,,,space,0.286,,,,,,,,,,j,1,1.283,,0,48,48,87,1,Dreams have a molecular structure,j,,,
,,,,,,,,2501,2022-04-06_16h11.23.758,ImplicitInfinitySC-FASTTASK,2021.2.3,Win32,240.3846154,,,,space,0.307,,,,,,,,,,j,1,1.18,,0,49,49,24,1,Space is finite,j,,,
,,,,,,,,2501,2022-04-06_16h11.23.758,ImplicitInfinitySC-FASTTASK,2021.2.3,Win32,240.3846154,,,,space,0.214,,,,,,,,,,j,0,1.771,,0,50,50,23,1,Time can always be further divided,f,,,
,,,,,,,,2501,2022-04-06_16h11.23.758,ImplicitInfinitySC-FASTTASK,2021.2.3,Win32,240.3846154,,,,space,0.26,,,,,,,,,,f,1,1.258,,0,51,51,12,1,An inch cannot go on forever,f,,,
,,,,,,,,2501,2022-04-06_16h11.23.758,ImplicitInfinitySC-FASTTASK,2021.2.3,Win32,240.3846154,,,,space,0.339,,,,,,,,,,f,1,1.611,,0,52,52,44,1,The number five cannot go on forever,f,,,
,,,,,,,,2501,2022-04-06_16h11.23.758,ImplicitInfinitySC-FASTTASK,2021.2.3,Win32,240.3846154,,,,space,0.26,,,,,,,,,,j,1,1.218,,0,53,53,114,1,Lightbulbs are made of clay,j,,,
,,,,,,,,2501,2022-04-06_16h11.23.758,ImplicitInfinitySC-FASTTASK,2021.2.3,Win32,240.3846154,,,,space,0.222,,,,,,,,,,f,1,1.466,,0,54,54,37,1,Numbers can go on forever,f,,,
,,,,,,,,2501,2022-04-06_16h11.23.758,ImplicitInfinitySC-FASTTASK,2021.2.3,Win32,240.3846154,,,,space,0.277,,,,,,,,,,f,1,1.097,,0,55,55,55,1,Concrete is composed of matter,f,,,
,,,,,,,,2501,2022-04-06_16h11.23.758,ImplicitInfinitySC-FASTTASK,2021.2.3,Win32,240.3846154,,,,space,0.34,,,,,,,,,,j,0,1.523,,0,56,56,31,1,Space can always be further divided,f,,,
,,,,,,,,2501,2022-04-06_16h11.23.758,ImplicitInfinitySC-FASTTASK,2021.2.3,Win32,240.3846154,,,,space,0.267,,,,,,,,,,f,1,1.243,,0,57,57,25,1,Space is infinite,f,,,
,,,,,,,,2501,2022-04-06_16h11.23.758,ImplicitInfinitySC-FASTTASK,2021.2.3,Win32,240.3846154,,,,space,0.364,,,,,,,,,,f,1,1.314,,0,58,58,71,1,Oaks reproduce,f,,,
,,,,,,,,2501,2022-04-06_16h11.23.758,ImplicitInfinitySC-FASTTASK,2021.2.3,Win32,240.3846154,,,,space,0.281,,,,,,,,,,f,1,1.05,,0,59,59,99,1,A motorcycle is a vehicle,f,,,
,,,,,,,,2501,2022-04-06_16h11.23.758,ImplicitInfinitySC-FASTTASK,2021.2.3,Win32,240.3846154,,,,space,0.398,,,,,,,,,,j,1,1.216,,0,60,60,64,1,Echoes are composed of matter,j,,,
,,,,,,,,2501,2022-04-06_16h11.23.758,ImplicitInfinitySC-FASTTASK,2021.2.3,Win32,240.3846154,,,,space,0.519,,,,,,,,,,j,1,0.899,,0,61,61,81,1,Tables reproduce,j,,,
,,,,,,,,2501,2022-04-06_16h11.23.758,ImplicitInfinitySC-FASTTASK,2021.2.3,Win32,240.3846154,,,,space,0.453,,,,,,,,,,j,0,1.97,,0,62,62,19,1,Time is endless,f,,,
,,,,,,,,2501,2022-04-06_16h11.23.758,ImplicitInfinitySC-FASTTASK,2021.2.3,Win32,240.3846154,,,,space,0.403,,,,,,,,,,f,0,1.164,,0,63,63,16,1,Time is finite,j,,,
,,,,,,,,2501,2022-04-06_16h11.23.758,ImplicitInfinitySC-FASTTASK,2021.2.3,Win32,240.3846154,,,,space,0.35,,,,,,,,,,f,1,1.388,,0,64,64,4,1,A minute cannot go on forever,f,,,
,,,,,,,,2501,2022-04-06_16h11.23.758,ImplicitInfinitySC-FASTTASK,2021.2.3,Win32,240.3846154,,,,space,0.356,,,,,,,,,,j,1,0.81,,0,65,65,110,1,A triangle is an animal,j,,,
,,,,,,,,2501,2022-04-06_16h11.23.758,ImplicitInfinitySC-FASTTASK,2021.2.3,Win32,240.3846154,,,,space,0.502,,,,,,,,,,f,0,1.114,,0,66,66,36,1,Numbers cannot go on forever,j,,,
,,,,,,,,2501,2022-04-06_16h11.23.758,ImplicitInfinitySC-FASTTASK,2021.2.3,Win32,240.3846154,,,,space,0.406,,,,,,,,,,f,1,1.857,,0,67,67,54,1,Dumbells are composed of matter,f,,,
,,,,,,,,2501,2022-04-06_16h11.23.758,ImplicitInfinitySC-FASTTASK,2021.2.3,Win32,240.3846154,,,,space,0.267,,,,,,,,,,f,1,1.026,,0,68,68,98,1,A clock is used to tell time,f,,,
,,,,,,,,2501,2022-04-06_16h11.23.758,ImplicitInfinitySC-FASTTASK,2021.2.3,Win32,240.3846154,,,,space,0.277,,,,,,,,,,j,1,1.072,,0,69,69,121,1,Jupiter is the planet we live on,j,,,
,,,,,,,,2501,2022-04-06_16h11.23.758,ImplicitInfinitySC-FASTTASK,2021.2.3,Win32,240.3846154,,,,space,0.246,,,,,,,,,,f,1,0.891,,0,70,70,100,1,A truck is a vehicle,f,,,
,,,,,,,,2501,2022-04-06_16h11.23.758,ImplicitInfinitySC-FASTTASK,2021.2.3,Win32,240.3846154,,,,space,0.274,,,,,,,,,,j,1,1.335,,0,71,71,32,1,Numbers are finite,j,,,
,,,,,,,,2501,2022-04-06_16h11.23.758,ImplicitInfinitySC-FASTTASK,2021.2.3,Win32,240.3846154,,,,space,0.284,,,,,,,,,,f,1,1.736,,0,72,72,15,1,An inch can be always further divided,f,,,
,,,,,,,,2501,2022-04-06_16h11.23.758,ImplicitInfinitySC-FASTTASK,2021.2.3,Win32,240.3846154,,,,space,0.302,,,,,,,,,,j,1,1.467,,0,73,73,43,1,The number five is endless,j,,,
,,,,,,,,2501,2022-04-06_16h11.23.758,ImplicitInfinitySC-FASTTASK,2021.2.3,Win32,240.3846154,,,,space,0.275,,,,,,,,,,j,1,1.147,,0,74,74,80,1,Mittens need nutrients,j,,,
,,,,,,,,2501,2022-04-06_16h11.23.758,ImplicitInfinitySC-FASTTASK,2021.2.3,Win32,240.3846154,,,,space,0.293,,,,,,,,,,f,1,1.264,,0,75,75,101,1,Jupiter is in our solar system,f,,,
,,,,,,,,2501,2022-04-06_16h11.23.758,ImplicitInfinitySC-FASTTASK,2021.2.3,Win32,240.3846154,,,,space,0.284,,,,,,,,,,f,1,1.025,,0,76,76,106,1,Humans cannot breathe water,f,,,
,,,,,,,,2501,2022-04-06_16h11.23.758,ImplicitInfinitySC-FASTTASK,2021.2.3,Win32,240.3846154,,,,space,0.422,,,,,,,,,,f,1,1.466,,0,77,77,17,1,Time is infinite,f,,,
,,,,,,,,2501,2022-04-06_16h11.23.758,ImplicitInfinitySC-FASTTASK,2021.2.3,Win32,240.3846154,,,,space,0.364,,,,,,,,,,j,1,1.69,,0,78,78,38,1,Numbers cannot always be further divided,j,,,
,,,,,,,,2501,2022-04-06_16h11.23.758,ImplicitInfinitySC-FASTTASK,2021.2.3,Win32,240.3846154,,,,space,0.27,,,,,,,,,,j,1,0.961,,0,79,79,119,1,A motorcycle is a person,j,,,
,,,,,,,,2501,2022-04-06_16h11.23.758,ImplicitInfinitySC-FASTTASK,2021.2.3,Win32,240.3846154,,,,space,0.229,,,,,,,,,,f,1,0.963,,0,80,80,96,1,Fish can swim in the ocean,f,,,
,,,,,,,,2501,2022-04-06_16h11.23.758,ImplicitInfinitySC-FASTTASK,2021.2.3,Win32,240.3846154,,,,,,,,,,,,,,,,,,,,,,,,,,,space,16.712
