INSTRESP.keys,INSTRESP.rt,Instrloop.thisRepN,Instrloop.thisTrialN,Instrloop.thisN,Instrloop.thisIndex,Instrloop.ran,FastInstructions,participant,date,expName,psychopyVersion,OS,frameRate,key_resp_2.keys,key_resp_2.corr,key_resp_2.rt,Advance_Resp.keys,Advance_Resp.rt,Practice.thisRepN,Practice.thisTrialN,Practice.thisN,Practice.thisIndex,Practice.ran,practicetext,practicecorrect,key_resp_3.keys,key_resp.keys,key_resp.corr,key_resp.rt,encouragekey.keys,FastLoop.thisRepN,FastLoop.thisTrialN,FastLoop.thisN,FastLoop.thisIndex,FastLoop.ran,Statement,Correct,encouragekey.rt,endstudykey.keys,endstudykey.rt
space,9.073,0,0,0,0,1,"You will be shown a total of 80 statements pertaining to mathematics, science, and social concepts. Your task is to determine whether each statement is true or false as quickly as possible without sacrificing accuracy. Some statements will be difficult and some will be easier.  We do not expect you to know the correct answer for all 80 statements.  Press SPACE to Continue",2519,2022-04-06_19h39.45.078,ImplicitInfinitySC-FASTTASK,2021.2.3,Win32,7.500300012,,,,,,,,,,,,,,,,,,,,,,,,,,,
space,8.772,0,1,1,1,1,"Each statement will appear on your screen for up to 4 seconds and you will have those 4 seconds to decide if it is true or false before the next statement appears. There will be a beep to inform you that you have 2.5 seconds remaining. Please make sure the sound on your computer is turned on. If you do not respond, that answer will be considered incorrect and the task will move on to the next statement. Press SPACE to continue",2519,2022-04-06_19h39.45.078,ImplicitInfinitySC-FASTTASK,2021.2.3,Win32,7.500300012,,,,,,,,,,,,,,,,,,,,,,,,,,,
space,10.084,0,2,2,2,1,"If the statement is true, you will press the “F” key on your keyboard with your left pointer finger; if the statement is false, you will press the “J” key on your keyboard with your right pointer finger. Press SPACE to continue",2519,2022-04-06_19h39.45.078,ImplicitInfinitySC-FASTTASK,2021.2.3,Win32,7.500300012,,,,,,,,,,,,,,,,,,,,,,,,,,,
space,2.032,0,3,3,3,1,"Prior to completing the study, you will complete 10 practice trials to familiarize yourself with the task. Your performance on these trials will determine your participation in the following study. Press SPACE to continue.",2519,2022-04-06_19h39.45.078,ImplicitInfinitySC-FASTTASK,2021.2.3,Win32,7.500300012,,,,,,,,,,,,,,,,,,,,,,,,,,,
space,1.525,0,4,4,4,1,"If the statement is true, press the “F” key on your keyboard with your left pointer finger; if the statement is false, press the “J” key on your keyboard with your right pointer finger. Press SPACE to continue",2519,2022-04-06_19h39.45.078,ImplicitInfinitySC-FASTTASK,2021.2.3,Win32,7.500300012,,,,,,,,,,,,,,,,,,,,,,,,,,,
,,,,,,,,2519,2022-04-06_19h39.45.078,ImplicitInfinitySC-FASTTASK,2021.2.3,Win32,7.500300012,j,1,1.772,space,1.116,0,0,0,5,1,A truck is an animal,j,,,,,,,,,,,,,,,
,,,,,,,,2519,2022-04-06_19h39.45.078,ImplicitInfinitySC-FASTTASK,2021.2.3,Win32,7.500300012,f,1,2.091,space,0.561,0,1,1,4,1,Humans cannot breathe water,f,,,,,,,,,,,,,,,
,,,,,,,,2519,2022-04-06_19h39.45.078,ImplicitInfinitySC-FASTTASK,2021.2.3,Win32,7.500300012,j,1,2.223,space,0.69,0,2,2,9,1,Humans cannot eat food,j,,,,,,,,,,,,,,,
,,,,,,,,2519,2022-04-06_19h39.45.078,ImplicitInfinitySC-FASTTASK,2021.2.3,Win32,7.500300012,f,1,1.329,space,0.415,0,3,3,2,1,Magenta is a color,f,,,,,,,,,,,,,,,
,,,,,,,,2519,2022-04-06_19h39.45.078,ImplicitInfinitySC-FASTTASK,2021.2.3,Win32,7.500300012,f,1,1.341,space,0.31,0,4,4,0,1,A circle is a shape,f,,,,,,,,,,,,,,,
,,,,,,,,2519,2022-04-06_19h39.45.078,ImplicitInfinitySC-FASTTASK,2021.2.3,Win32,7.500300012,f,1,2.331,space,0.433,0,5,5,1,1,Dinosaurs are extinct,f,,,,,,,,,,,,,,,
,,,,,,,,2519,2022-04-06_19h39.45.078,ImplicitInfinitySC-FASTTASK,2021.2.3,Win32,7.500300012,j,1,0.176,space,0.762,0,6,6,8,1,Mississippi is a country,j,,,,,,,,,,,,,,,
,,,,,,,,2519,2022-04-06_19h39.45.078,ImplicitInfinitySC-FASTTASK,2021.2.3,Win32,7.500300012,j,1,2.039,space,0.518,0,7,7,6,1,Jupiter is the planet we live on,j,,,,,,,,,,,,,,,
,,,,,,,,2519,2022-04-06_19h39.45.078,ImplicitInfinitySC-FASTTASK,2021.2.3,Win32,7.500300012,j,1,1.676,space,0.345,0,8,8,7,1,The Earth is a star,j,,,,,,,,,,,,,,,
,,,,,,,,2519,2022-04-06_19h39.45.078,ImplicitInfinitySC-FASTTASK,2021.2.3,Win32,7.500300012,f,1,1.388,space,0.401,0,9,9,3,1,A clock is used to tell time,f,,,,,,,,,,,,,,,
,,,,,,,,2519,2022-04-06_19h39.45.078,ImplicitInfinitySC-FASTTASK,2021.2.3,Win32,7.500300012,,,,space,0.524,,,,,,,,,j,1,1.291,,0,0,0,111,1,A circle is a flavor,j,,,
,,,,,,,,2519,2022-04-06_19h39.45.078,ImplicitInfinitySC-FASTTASK,2021.2.3,Win32,7.500300012,,,,space,0.351,,,,,,,,,f,1,1.617,,0,1,1,105,1,There are fifty states in the United States,f,,,
,,,,,,,,2519,2022-04-06_19h39.45.078,ImplicitInfinitySC-FASTTASK,2021.2.3,Win32,7.500300012,,,,space,0.463,,,,,,,,,j,0,1.922,,0,2,2,73,1,Bubbles can be put in a container,f,,,
,,,,,,,,2519,2022-04-06_19h39.45.078,ImplicitInfinitySC-FASTTASK,2021.2.3,Win32,7.500300012,,,,space,0.492,,,,,,,,,j,1,1.737,,0,3,3,26,1,Space has an end,j,,,
,,,,,,,,2519,2022-04-06_19h39.45.078,ImplicitInfinitySC-FASTTASK,2021.2.3,Win32,7.500300012,,,,space,0.361,,,,,,,,,j,0,1.751,,0,4,4,76,1,Pollen has a molecular structure,f,,,
,,,,,,,,2519,2022-04-06_19h39.45.078,ImplicitInfinitySC-FASTTASK,2021.2.3,Win32,7.500300012,,,,space,0.407,,,,,,,,,j,1,1.558,,0,5,5,79,1,Forks are alive,j,,,
,,,,,,,,2519,2022-04-06_19h39.45.078,ImplicitInfinitySC-FASTTASK,2021.2.3,Win32,7.500300012,,,,space,0.426,,,,,,,,,j,1,1.673,,0,6,6,112,1,Dinosaurs are not extinct,j,,,
,,,,,,,,2519,2022-04-06_19h39.45.078,ImplicitInfinitySC-FASTTASK,2021.2.3,Win32,7.500300012,,,,space,0.42,,,,,,,,,j,1,1.447,,0,7,7,110,1,A triangle is an animal,j,,,
,,,,,,,,2519,2022-04-06_19h39.45.078,ImplicitInfinitySC-FASTTASK,2021.2.3,Win32,7.500300012,,,,space,0.46,,,,,,,,,f,0,2.023,,0,8,8,32,1,Numbers are finite,j,,,
,,,,,,,,2519,2022-04-06_19h39.45.078,ImplicitInfinitySC-FASTTASK,2021.2.3,Win32,7.500300012,,,,space,0.44,,,,,,,,,f,1,2.092,,0,9,9,55,1,Concrete is composed of matter,f,,,
,,,,,,,,2519,2022-04-06_19h39.45.078,ImplicitInfinitySC-FASTTASK,2021.2.3,Win32,7.500300012,,,,space,0.425,,,,,,,,,j,1,3.477,,0,10,10,6,1,A minute cannot always be further divided,j,,,
,,,,,,,,2519,2022-04-06_19h39.45.078,ImplicitInfinitySC-FASTTASK,2021.2.3,Win32,7.500300012,,,,space,0.378,,,,,,,,,j,1,2.866,,0,11,11,41,1,The number five is infinite,j,,,
,,,,,,,,2519,2022-04-06_19h39.45.078,ImplicitInfinitySC-FASTTASK,2021.2.3,Win32,7.500300012,,,,space,0.382,,,,,,,,,f,1,2.058,,0,12,12,99,1,A motorcycle is a vehicle,f,,,
,,,,,,,,2519,2022-04-06_19h39.45.078,ImplicitInfinitySC-FASTTASK,2021.2.3,Win32,7.500300012,,,,space,0.676,,,,,,,,,f,0,1.602,,0,13,13,5,1,A minute can go on forever,j,,,
,,,,,,,,2519,2022-04-06_19h39.45.078,ImplicitInfinitySC-FASTTASK,2021.2.3,Win32,7.500300012,,,,space,0.36,,,,,,,,,f,1,2.228,,0,14,14,71,1,Oaks reproduce,f,,,
,,,,,,,,2519,2022-04-06_19h39.45.078,ImplicitInfinitySC-FASTTASK,2021.2.3,Win32,7.500300012,,,,space,0.453,,,,,,,,,j,1,2.208,,0,15,15,13,1,An inch can go on forever,j,,,
,,,,,,,,2519,2022-04-06_19h39.45.078,ImplicitInfinitySC-FASTTASK,2021.2.3,Win32,7.500300012,,,,space,0.327,,,,,,,,,f,1,0.961,,0,16,16,102,1,The Earth is a planet,f,,,
,,,,,,,,2519,2022-04-06_19h39.45.078,ImplicitInfinitySC-FASTTASK,2021.2.3,Win32,7.500300012,,,,space,0.331,,,,,,,,,f,1,1.766,,0,17,17,74,1,Foam is composed of matter,f,,,
,,,,,,,,2519,2022-04-06_19h39.45.078,ImplicitInfinitySC-FASTTASK,2021.2.3,Win32,7.500300012,,,,space,0.313,,,,,,,,,f,1,0.983,,0,18,18,19,1,Time is endless,f,,,
,,,,,,,,2519,2022-04-06_19h39.45.078,ImplicitInfinitySC-FASTTASK,2021.2.3,Win32,7.500300012,,,,space,0.384,,,,,,,,,j,1,1.476,,0,19,19,124,1,The president of the United States is Oprah,j,,,
,,,,,,,,2519,2022-04-06_19h39.45.078,ImplicitInfinitySC-FASTTASK,2021.2.3,Win32,7.500300012,,,,space,0.4,,,,,,,,,j,1,1.313,,0,20,20,18,1,Time has an end,j,,,
,,,,,,,,2519,2022-04-06_19h39.45.078,ImplicitInfinitySC-FASTTASK,2021.2.3,Win32,7.500300012,,,,space,0.406,,,,,,,,,j,1,0.978,,0,21,21,78,1,Hammers are alive,j,,,
,,,,,,,,2519,2022-04-06_19h39.45.078,ImplicitInfinitySC-FASTTASK,2021.2.3,Win32,7.500300012,,,,space,0.433,,,,,,,,,j,0,1.815,,0,22,22,54,1,Dumbells are composed of matter,f,,,
,,,,,,,,2519,2022-04-06_19h39.45.078,ImplicitInfinitySC-FASTTASK,2021.2.3,Win32,7.500300012,,,,space,0.422,,,,,,,,,j,1,1.904,,0,23,23,126,1,Humans can breathe water,j,,,
,,,,,,,,2519,2022-04-06_19h39.45.078,ImplicitInfinitySC-FASTTASK,2021.2.3,Win32,7.500300012,,,,space,0.486,,,,,,,,,j,1,0.975,,0,24,24,115,1,Yellow is an animal,j,,,
,,,,,,,,2519,2022-04-06_19h39.45.078,ImplicitInfinitySC-FASTTASK,2021.2.3,Win32,7.500300012,,,,space,0.336,,,,,,,,,j,1,1.135,,0,25,25,34,1,Numbers have an end,j,,,
,,,,,,,,2519,2022-04-06_19h39.45.078,ImplicitInfinitySC-FASTTASK,2021.2.3,Win32,7.500300012,,,,space,0.357,,,,,,,,,j,1,1.557,,0,26,26,83,1,Songs can be put in a container,j,,,
,,,,,,,,2519,2022-04-06_19h39.45.078,ImplicitInfinitySC-FASTTASK,2021.2.3,Win32,7.500300012,,,,space,0.356,,,,,,,,,j,0,2.389,,0,27,27,44,1,The number five cannot go on forever,f,,,
,,,,,,,,2519,2022-04-06_19h39.45.078,ImplicitInfinitySC-FASTTASK,2021.2.3,Win32,7.500300012,,,,space,0.339,,,,,,,,,f,1,1.379,,0,28,28,92,1,Dinosaurs are extinct,f,,,
,,,,,,,,2519,2022-04-06_19h39.45.078,ImplicitInfinitySC-FASTTASK,2021.2.3,Win32,7.500300012,,,,space,0.336,,,,,,,,,f,1,1.514,,0,29,29,27,1,Space is endless,f,,,
,,,,,,,,2519,2022-04-06_19h39.45.078,ImplicitInfinitySC-FASTTASK,2021.2.3,Win32,7.500300012,,,,space,0.335,,,,,,,,,f,1,1.045,,0,30,30,91,1,A circle is a shape,f,,,
,,,,,,,,2519,2022-04-06_19h39.45.078,ImplicitInfinitySC-FASTTASK,2021.2.3,Win32,7.500300012,,,,space,0.296,,,,,,,,,f,1,0.974,,0,31,31,17,1,Time is infinite,f,,,
,,,,,,,,2519,2022-04-06_19h39.45.078,ImplicitInfinitySC-FASTTASK,2021.2.3,Win32,7.500300012,,,,space,0.375,,,,,,,,,j,1,1.084,,0,32,32,1,1,A minute is infinite,j,,,
,,,,,,,,2519,2022-04-06_19h39.45.078,ImplicitInfinitySC-FASTTASK,2021.2.3,Win32,7.500300012,,,,space,0.368,,,,,,,,,f,1,1.189,,0,33,33,0,1,A minute is finite,f,,,
,,,,,,,,2519,2022-04-06_19h39.45.078,ImplicitInfinitySC-FASTTASK,2021.2.3,Win32,7.500300012,,,,space,0.527,,,,,,,,,j,1,1.946,,0,34,34,14,1,An inch cannot always be further divided,j,,,
,,,,,,,,2519,2022-04-06_19h39.45.078,ImplicitInfinitySC-FASTTASK,2021.2.3,Win32,7.500300012,,,,space,0.354,,,,,,,,,j,1,1.275,,0,35,35,81,1,Tables reproduce,j,,,
,,,,,,,,2519,2022-04-06_19h39.45.078,ImplicitInfinitySC-FASTTASK,2021.2.3,Win32,7.500300012,,,,space,0.353,,,,,,,,,f,1,0.838,,0,36,36,95,1,Yellow is a color,f,,,
,,,,,,,,2519,2022-04-06_19h39.45.078,ImplicitInfinitySC-FASTTASK,2021.2.3,Win32,7.500300012,,,,space,0.446,,,,,,,,,j,0,2.131,,0,37,37,31,1,Space can always be further divided,f,,,
,,,,,,,,2519,2022-04-06_19h39.45.078,ImplicitInfinitySC-FASTTASK,2021.2.3,Win32,7.500300012,,,,space,0.343,,,,,,,,,f,1,1.177,,0,38,38,33,1,Numbers are infinite,f,,,
,,,,,,,,2519,2022-04-06_19h39.45.078,ImplicitInfinitySC-FASTTASK,2021.2.3,Win32,7.500300012,,,,space,0.38,,,,,,,,,j,1,1.13,,0,39,39,61,1,Sailboats reproduce,j,,,
,,,,,,,,2519,2022-04-06_19h39.45.078,ImplicitInfinitySC-FASTTASK,2021.2.3,Win32,7.500300012,,,,space,0.564,,,,,,,,,j,1,1.135,space,0,40,40,16,1,Time is finite,j,0.394,,
,,,,,,,,2519,2022-04-06_19h39.45.078,ImplicitInfinitySC-FASTTASK,2021.2.3,Win32,7.500300012,,,,space,0.36,,,,,,,,,j,1,2.035,,0,41,41,22,1,Time cannot always be further divided,j,,,
,,,,,,,,2519,2022-04-06_19h39.45.078,ImplicitInfinitySC-FASTTASK,2021.2.3,Win32,7.500300012,,,,space,0.525,,,,,,,,,f,0,2.636,,0,42,42,30,1,Space cannot always be further divided,j,,,
,,,,,,,,2519,2022-04-06_19h39.45.078,ImplicitInfinitySC-FASTTASK,2021.2.3,Win32,7.500300012,,,,space,0.429,,,,,,,,,j,1,1.757,,0,43,43,114,1,Lightbulbs are made of clay,j,,,
,,,,,,,,2519,2022-04-06_19h39.45.078,ImplicitInfinitySC-FASTTASK,2021.2.3,Win32,7.500300012,,,,space,0.53,,,,,,,,,f,1,1.428,,0,44,44,89,1,A square is a shape,f,,,
,,,,,,,,2519,2022-04-06_19h39.45.078,ImplicitInfinitySC-FASTTASK,2021.2.3,Win32,7.500300012,,,,space,0.405,,,,,,,,,j,1,0.971,,0,45,45,109,1,A square is a color,j,,,
,,,,,,,,2519,2022-04-06_19h39.45.078,ImplicitInfinitySC-FASTTASK,2021.2.3,Win32,7.500300012,,,,space,0.384,,,,,,,,,j,1,1.007,,0,46,46,119,1,A motorcycle is a person,j,,,
,,,,,,,,2519,2022-04-06_19h39.45.078,ImplicitInfinitySC-FASTTASK,2021.2.3,Win32,7.500300012,,,,space,0.373,,,,,,,,,f,1,1.055,,0,47,47,107,1,A pencil is used to write,f,,,
,,,,,,,,2519,2022-04-06_19h39.45.078,ImplicitInfinitySC-FASTTASK,2021.2.3,Win32,7.500300012,,,,space,0.388,,,,,,,,,j,1,1.047,,0,48,48,62,1,Helicopters reproduce,j,,,
,,,,,,,,2519,2022-04-06_19h39.45.078,ImplicitInfinitySC-FASTTASK,2021.2.3,Win32,7.500300012,,,,space,0.345,,,,,,,,,f,1,1.41,,0,49,49,104,1,The United States has a president,f,,,
,,,,,,,,2519,2022-04-06_19h39.45.078,ImplicitInfinitySC-FASTTASK,2021.2.3,Win32,7.500300012,,,,space,0.404,,,,,,,,,f,1,1.63,,0,50,50,106,1,Humans cannot breathe water,f,,,
,,,,,,,,2519,2022-04-06_19h39.45.078,ImplicitInfinitySC-FASTTASK,2021.2.3,Win32,7.500300012,,,,space,0.368,,,,,,,,,f,1,1.582,,0,51,51,4,1,A minute cannot go on forever,f,,,
,,,,,,,,2519,2022-04-06_19h39.45.078,ImplicitInfinitySC-FASTTASK,2021.2.3,Win32,7.500300012,,,,space,0.431,,,,,,,,,j,0,2.326,,0,52,52,53,1,Bricks can be put in a container,f,,,
,,,,,,,,2519,2022-04-06_19h39.45.078,ImplicitInfinitySC-FASTTASK,2021.2.3,Win32,7.500300012,,,,space,0.355,,,,,,,,,j,1,1.239,,0,53,53,45,1,The number five can go on forever,j,,,
,,,,,,,,2519,2022-04-06_19h39.45.078,ImplicitInfinitySC-FASTTASK,2021.2.3,Win32,7.500300012,,,,space,0.387,,,,,,,,,f,1,2.128,,0,54,54,88,1,This sentence is written in English,f,,,
,,,,,,,,2519,2022-04-06_19h39.45.078,ImplicitInfinitySC-FASTTASK,2021.2.3,Win32,7.500300012,,,,space,0.425,,,,,,,,,f,1,1.218,,0,55,55,101,1,Jupiter is in our solar system,f,,,
,,,,,,,,2519,2022-04-06_19h39.45.078,ImplicitInfinitySC-FASTTASK,2021.2.3,Win32,7.500300012,,,,space,0.415,,,,,,,,,j,1,1.288,,0,56,56,60,1,Robots need nutrients,j,,,
,,,,,,,,2519,2022-04-06_19h39.45.078,ImplicitInfinitySC-FASTTASK,2021.2.3,Win32,7.500300012,,,,space,0.404,,,,,,,,,j,0,1.741,,0,57,57,77,1,Saliva has a molecular structure,f,,,
,,,,,,,,2519,2022-04-06_19h39.45.078,ImplicitInfinitySC-FASTTASK,2021.2.3,Win32,7.500300012,,,,space,0.583,,,,,,,,,j,1,1.217,,0,58,58,9,1,An inch is infinite,j,,,
,,,,,,,,2519,2022-04-06_19h39.45.078,ImplicitInfinitySC-FASTTASK,2021.2.3,Win32,7.500300012,,,,space,0.398,,,,,,,,,f,1,1.186,,0,59,59,37,1,Numbers can go on forever,f,,,
,,,,,,,,2519,2022-04-06_19h39.45.078,ImplicitInfinitySC-FASTTASK,2021.2.3,Win32,7.500300012,,,,space,0.329,,,,,,,,,f,0,1.572,,0,60,60,59,1,Comets are alive,j,,,
,,,,,,,,2519,2022-04-06_19h39.45.078,ImplicitInfinitySC-FASTTASK,2021.2.3,Win32,7.500300012,,,,space,0.402,,,,,,,,,j,1,1.549,,0,61,61,87,1,Dreams have a molecular structure,j,,,
,,,,,,,,2519,2022-04-06_19h39.45.078,ImplicitInfinitySC-FASTTASK,2021.2.3,Win32,7.500300012,,,,space,0.498,,,,,,,,,j,0,1.197,,0,62,62,57,1,Rocks have a molecular structure,f,,,
,,,,,,,,2519,2022-04-06_19h39.45.078,ImplicitInfinitySC-FASTTASK,2021.2.3,Win32,7.500300012,,,,space,0.431,,,,,,,,,j,1,1.639,,0,63,63,108,1,This sentence is written in Spanish,j,,,
,,,,,,,,2519,2022-04-06_19h39.45.078,ImplicitInfinitySC-FASTTASK,2021.2.3,Win32,7.500300012,,,,space,0.363,,,,,,,,,j,1,1.238,,0,64,64,123,1,Mississippi is a country,j,,,
,,,,,,,,2519,2022-04-06_19h39.45.078,ImplicitInfinitySC-FASTTASK,2021.2.3,Win32,7.500300012,,,,space,0.367,,,,,,,,,j,1,1.479,,0,65,65,67,1,Gravity has a molecular structure,j,,,
,,,,,,,,2519,2022-04-06_19h39.45.078,ImplicitInfinitySC-FASTTASK,2021.2.3,Win32,7.500300012,,,,space,0.4,,,,,,,,,f,0,2.603,,0,66,66,38,1,Numbers cannot always be further divided,j,,,
,,,,,,,,2519,2022-04-06_19h39.45.078,ImplicitInfinitySC-FASTTASK,2021.2.3,Win32,7.500300012,,,,space,0.407,,,,,,,,,f,1,1.411,,0,67,67,29,1,Space can go on forever,f,,,
,,,,,,,,2519,2022-04-06_19h39.45.078,ImplicitInfinitySC-FASTTASK,2021.2.3,Win32,7.500300012,,,,space,0.367,,,,,,,,,f,1,2.363,,0,68,68,42,1,The number five has an end,f,,,
,,,,,,,,2519,2022-04-06_19h39.45.078,ImplicitInfinitySC-FASTTASK,2021.2.3,Win32,7.500300012,,,,space,0.417,,,,,,,,,j,1,1.395,,0,69,69,28,1,Space cannot go on forever,j,,,
,,,,,,,,2519,2022-04-06_19h39.45.078,ImplicitInfinitySC-FASTTASK,2021.2.3,Win32,7.500300012,,,,space,0.384,,,,,,,,,j,1,1.895,,0,70,70,11,1,An inch is endless,j,,,
,,,,,,,,2519,2022-04-06_19h39.45.078,ImplicitInfinitySC-FASTTASK,2021.2.3,Win32,7.500300012,,,,space,0.404,,,,,,,,,j,0,0.948,,0,71,71,72,1,Mushrooms reproduce,f,,,
,,,,,,,,2519,2022-04-06_19h39.45.078,ImplicitInfinitySC-FASTTASK,2021.2.3,Win32,7.500300012,,,,space,0.378,,,,,,,,,j,1,1.2,,0,72,72,121,1,Jupiter is the planet we live on,j,,,
,,,,,,,,2519,2022-04-06_19h39.45.078,ImplicitInfinitySC-FASTTASK,2021.2.3,Win32,7.500300012,,,,space,0.403,,,,,,,,,j,1,1.965,,0,73,73,46,1,The number five cannot always be further divided,j,,,
,,,,,,,,2519,2022-04-06_19h39.45.078,ImplicitInfinitySC-FASTTASK,2021.2.3,Win32,7.500300012,,,,space,0.406,,,,,,,,,j,1,1.08,,0,74,74,127,1,A zebra is used to write,j,,,
,,,,,,,,2519,2022-04-06_19h39.45.078,ImplicitInfinitySC-FASTTASK,2021.2.3,Win32,7.500300012,,,,space,0.443,,,,,,,,,f,1,1.373,,0,75,75,97,1,Dolphins can swim in the ocean,f,,,
,,,,,,,,2519,2022-04-06_19h39.45.078,ImplicitInfinitySC-FASTTASK,2021.2.3,Win32,7.500300012,,,,space,0.398,,,,,,,,,f,1,1.676,,0,76,76,47,1,The number five can always be further divided,f,,,
,,,,,,,,2519,2022-04-06_19h39.45.078,ImplicitInfinitySC-FASTTASK,2021.2.3,Win32,7.500300012,,,,space,0.637,,,,,,,,,j,1,2.657,,0,77,77,86,1,Words have a molecular structure,j,,,
,,,,,,,,2519,2022-04-06_19h39.45.078,ImplicitInfinitySC-FASTTASK,2021.2.3,Win32,7.500300012,,,,space,0.41,,,,,,,,,f,1,1.178,,0,78,78,48,1,Crocodiles are alive,f,,,
,,,,,,,,2519,2022-04-06_19h39.45.078,ImplicitInfinitySC-FASTTASK,2021.2.3,Win32,7.500300012,,,,space,0.418,,,,,,,,,f,1,2.073,,0,79,79,51,1,Tigers reproduce,f,,,
,,,,,,,,2519,2022-04-06_19h39.45.078,ImplicitInfinitySC-FASTTASK,2021.2.3,Win32,7.500300012,,,,space,0.889,,,,,,,,,j,1,1.586,,0,80,80,20,1,Time cannot go on forever,j,,,
,,,,,,,,2519,2022-04-06_19h39.45.078,ImplicitInfinitySC-FASTTASK,2021.2.3,Win32,7.500300012,,,,,,,,,,,,,,,,,,,,,,,,,,space,17.404
