INSTRESP.keys,INSTRESP.rt,Instrloop.thisRepN,Instrloop.thisTrialN,Instrloop.thisN,Instrloop.thisIndex,Instrloop.ran,FastInstructions,participant,date,expName,psychopyVersion,OS,frameRate,key_resp_2.keys,key_resp_2.corr,key_resp_2.rt,Advance_Resp.keys,Advance_Resp.rt,Practice.thisRepN,Practice.thisTrialN,Practice.thisN,Practice.thisIndex,Practice.ran,practicetext,practicecorrect,key_resp_3.keys,key_resp_3.rt,key_resp.keys,key_resp.corr,key_resp.rt,encouragekey.keys,FastLoop.thisRepN,FastLoop.thisTrialN,FastLoop.thisN,FastLoop.thisIndex,FastLoop.ran,Statement,Correct,encouragekey.rt,endstudykey.keys,endstudykey.rt
space,3.9238,0,0,0,0,1,"You will be shown a total of 80 statements pertaining to mathematics, science, and social concepts. Your task is to determine whether each statement is true or false as quickly as possible without sacrificing accuracy. Some statements will be difficult and some will be easier.  We do not expect you to know the correct answer for all 80 statements.  Press SPACE to Continue",3922,2022-04-06_16h10.39.311,ImplicitInfinitySC-FASTTASK,2021.2.3,Win32,59.49193884,,,,,,,,,,,,,,,,,,,,,,,,,,,,
space,8.7516,0,1,1,1,1,"Each statement will appear on your screen for up to 4 seconds and you will have those 4 seconds to decide if it is true or false before the next statement appears. There will be a beep to inform you that you have 2.5 seconds remaining. Please make sure the sound on your computer is turned on. If you do not respond, that answer will be considered incorrect and the task will move on to the next statement. Press SPACE to continue",3922,2022-04-06_16h10.39.311,ImplicitInfinitySC-FASTTASK,2021.2.3,Win32,59.49193884,,,,,,,,,,,,,,,,,,,,,,,,,,,,
space,1.1817,0,2,2,2,1,"If the statement is true, you will press the “F” key on your keyboard with your left pointer finger; if the statement is false, you will press the “J” key on your keyboard with your right pointer finger. Press SPACE to continue",3922,2022-04-06_16h10.39.311,ImplicitInfinitySC-FASTTASK,2021.2.3,Win32,59.49193884,,,,,,,,,,,,,,,,,,,,,,,,,,,,
space,2.1369,0,3,3,3,1,"Prior to completing the study, you will complete 10 practice trials to familiarize yourself with the task. Your performance on these trials will determine your participation in the following study. Press SPACE to continue.",3922,2022-04-06_16h10.39.311,ImplicitInfinitySC-FASTTASK,2021.2.3,Win32,59.49193884,,,,,,,,,,,,,,,,,,,,,,,,,,,,
space,1.1326,0,4,4,4,1,"If the statement is true, press the “F” key on your keyboard with your left pointer finger; if the statement is false, press the “J” key on your keyboard with your right pointer finger. Press SPACE to continue",3922,2022-04-06_16h10.39.311,ImplicitInfinitySC-FASTTASK,2021.2.3,Win32,59.49193884,,,,,,,,,,,,,,,,,,,,,,,,,,,,
,,,,,,,,3922,2022-04-06_16h10.39.311,ImplicitInfinitySC-FASTTASK,2021.2.3,Win32,59.49193884,f,1,1.4915,space,2.033,0,0,0,2,1,Magenta is a color,f,,,,,,,,,,,,,,,,
,,,,,,,,3922,2022-04-06_16h10.39.311,ImplicitInfinitySC-FASTTASK,2021.2.3,Win32,59.49193884,,0,,space,1.2622,0,1,1,5,1,A truck is an animal,j,,,,,,,,,,,,,,,,
,,,,,,,,3922,2022-04-06_16h10.39.311,ImplicitInfinitySC-FASTTASK,2021.2.3,Win32,59.49193884,j,0,1.7021,space,1.5776,0,2,2,4,1,Humans cannot breathe water,f,,,,,,,,,,,,,,,,
,,,,,,,,3922,2022-04-06_16h10.39.311,ImplicitInfinitySC-FASTTASK,2021.2.3,Win32,59.49193884,f,1,1.1719,space,0.7937,0,3,3,0,1,A circle is a shape,f,,,,,,,,,,,,,,,,
,,,,,,,,3922,2022-04-06_16h10.39.311,ImplicitInfinitySC-FASTTASK,2021.2.3,Win32,59.49193884,f,1,1.4163,space,0.6561,0,4,4,3,1,A clock is used to tell time,f,,,,,,,,,,,,,,,,
,,,,,,,,3922,2022-04-06_16h10.39.311,ImplicitInfinitySC-FASTTASK,2021.2.3,Win32,59.49193884,f,1,1.4315,space,0.4449,0,5,5,1,1,Dinosaurs are extinct,f,,,,,,,,,,,,,,,,
,,,,,,,,3922,2022-04-06_16h10.39.311,ImplicitInfinitySC-FASTTASK,2021.2.3,Win32,59.49193884,j,1,1.2653,space,0.6221,0,6,6,6,1,Jupiter is the planet we live on,j,,,,,,,,,,,,,,,,
,,,,,,,,3922,2022-04-06_16h10.39.311,ImplicitInfinitySC-FASTTASK,2021.2.3,Win32,59.49193884,j,1,1.4504,space,0.5296,0,7,7,9,1,Humans cannot eat food,j,,,,,,,,,,,,,,,,
,,,,,,,,3922,2022-04-06_16h10.39.311,ImplicitInfinitySC-FASTTASK,2021.2.3,Win32,59.49193884,f,0,1.7902,space,1.423,0,8,8,7,1,The Earth is a star,j,,,,,,,,,,,,,,,,
,,,,,,,,3922,2022-04-06_16h10.39.311,ImplicitInfinitySC-FASTTASK,2021.2.3,Win32,59.49193884,j,1,1.1123,space,0.6166,0,9,9,8,1,Mississippi is a country,j,,,,,,,,,,,,,,,,
,,,,,,,,3922,2022-04-06_16h10.39.311,ImplicitInfinitySC-FASTTASK,2021.2.3,Win32,59.49193884,,,,space,0.5635,,,,,,,,space,1.6077,j,1,1.1972,,0,0,0,13,1,An inch can go on forever,j,,,
,,,,,,,,3922,2022-04-06_16h10.39.311,ImplicitInfinitySC-FASTTASK,2021.2.3,Win32,59.49193884,,,,space,0.4336,,,,,,,,,,f,1,1.3458,,0,1,1,106,1,Humans cannot breathe water,f,,,
,,,,,,,,3922,2022-04-06_16h10.39.311,ImplicitInfinitySC-FASTTASK,2021.2.3,Win32,59.49193884,,,,space,0.4429,,,,,,,,,,f,1,1.0494,,0,2,2,95,1,Yellow is a color,f,,,
,,,,,,,,3922,2022-04-06_16h10.39.311,ImplicitInfinitySC-FASTTASK,2021.2.3,Win32,59.49193884,,,,space,0.8888,,,,,,,,,,f,1,1.5129,,0,3,3,71,1,Oaks reproduce,f,,,
,,,,,,,,3922,2022-04-06_16h10.39.311,ImplicitInfinitySC-FASTTASK,2021.2.3,Win32,59.49193884,,,,space,0.7529,,,,,,,,,,j,1,2.4146,,0,4,4,46,1,The number five cannot always be further divided,j,,,
,,,,,,,,3922,2022-04-06_16h10.39.311,ImplicitInfinitySC-FASTTASK,2021.2.3,Win32,59.49193884,,,,space,0.5972,,,,,,,,,,,0,,,0,5,5,23,1,Time can always be further divided,f,,,
,,,,,,,,3922,2022-04-06_16h10.39.311,ImplicitInfinitySC-FASTTASK,2021.2.3,Win32,59.49193884,,,,space,0.5282,,,,,,,,,,f,1,1.2769,,0,6,6,35,1,Numbers are endless,f,,,
,,,,,,,,3922,2022-04-06_16h10.39.311,ImplicitInfinitySC-FASTTASK,2021.2.3,Win32,59.49193884,,,,space,0.7583,,,,,,,,,,j,1,1.7242,,0,7,7,84,1,Silence is composed of matter,j,,,
,,,,,,,,3922,2022-04-06_16h10.39.311,ImplicitInfinitySC-FASTTASK,2021.2.3,Win32,59.49193884,,,,space,0.4684,,,,,,,,,,f,1,0.8593,,0,8,8,52,1,Frogs reproduce,f,,,
,,,,,,,,3922,2022-04-06_16h10.39.311,ImplicitInfinitySC-FASTTASK,2021.2.3,Win32,59.49193884,,,,space,0.4015,,,,,,,,,,j,1,0.9556,,0,9,9,115,1,Yellow is an animal,j,,,
,,,,,,,,3922,2022-04-06_16h10.39.311,ImplicitInfinitySC-FASTTASK,2021.2.3,Win32,59.49193884,,,,space,0.3053,,,,,,,,,,f,1,0.8185,,0,10,10,103,1,The United States is a country,f,,,
,,,,,,,,3922,2022-04-06_16h10.39.311,ImplicitInfinitySC-FASTTASK,2021.2.3,Win32,59.49193884,,,,space,0.4128,,,,,,,,,,j,1,0.8357,,0,11,11,82,1,Stones reproduce,j,,,
,,,,,,,,3922,2022-04-06_16h10.39.311,ImplicitInfinitySC-FASTTASK,2021.2.3,Win32,59.49193884,,,,space,0.7799,,,,,,,,,,j,1,1.7198,,0,12,12,108,1,This sentence is written in Spanish,j,,,
,,,,,,,,3922,2022-04-06_16h10.39.311,ImplicitInfinitySC-FASTTASK,2021.2.3,Win32,59.49193884,,,,space,0.428,,,,,,,,,,f,1,1.2811,,0,13,13,40,1,The number five is finite,f,,,
,,,,,,,,3922,2022-04-06_16h10.39.311,ImplicitInfinitySC-FASTTASK,2021.2.3,Win32,59.49193884,,,,space,0.4031,,,,,,,,,,j,1,0.8663,,0,14,14,122,1,The Earth is a star,j,,,
,,,,,,,,3922,2022-04-06_16h10.39.311,ImplicitInfinitySC-FASTTASK,2021.2.3,Win32,59.49193884,,,,space,0.6166,,,,,,,,,,j,1,1.6043,,0,15,15,80,1,Mittens need nutrients,j,,,
,,,,,,,,3922,2022-04-06_16h10.39.311,ImplicitInfinitySC-FASTTASK,2021.2.3,Win32,59.49193884,,,,space,0.4342,,,,,,,,,,f,1,0.8823,,0,16,16,17,1,Time is infinite,f,,,
,,,,,,,,3922,2022-04-06_16h10.39.311,ImplicitInfinitySC-FASTTASK,2021.2.3,Win32,59.49193884,,,,space,0.411,,,,,,,,,,j,1,1.0082,,0,17,17,120,1,A truck is an animal,j,,,
,,,,,,,,3922,2022-04-06_16h10.39.311,ImplicitInfinitySC-FASTTASK,2021.2.3,Win32,59.49193884,,,,space,0.3409,,,,,,,,,,f,1,0.8569,,0,18,18,97,1,Dolphins can swim in the ocean,f,,,
,,,,,,,,3922,2022-04-06_16h10.39.311,ImplicitInfinitySC-FASTTASK,2021.2.3,Win32,59.49193884,,,,space,0.4068,,,,,,,,,,f,1,1.1008,,0,19,19,76,1,Pollen has a molecular structure,f,,,
,,,,,,,,3922,2022-04-06_16h10.39.311,ImplicitInfinitySC-FASTTASK,2021.2.3,Win32,59.49193884,,,,space,0.7127,,,,,,,,,,j,1,1.5228,,0,20,20,118,1,A horse is used to tell time,j,,,
,,,,,,,,3922,2022-04-06_16h10.39.311,ImplicitInfinitySC-FASTTASK,2021.2.3,Win32,59.49193884,,,,space,0.4003,,,,,,,,,,f,1,1.2612,,0,21,21,74,1,Foam is composed of matter,f,,,
,,,,,,,,3922,2022-04-06_16h10.39.311,ImplicitInfinitySC-FASTTASK,2021.2.3,Win32,59.49193884,,,,space,0.3866,,,,,,,,,,f,0,1.4341,,0,22,22,87,1,Dreams have a molecular structure,j,,,
,,,,,,,,3922,2022-04-06_16h10.39.311,ImplicitInfinitySC-FASTTASK,2021.2.3,Win32,59.49193884,,,,space,0.4775,,,,,,,,,,j,1,0.9184,,0,23,23,112,1,Dinosaurs are not extinct,j,,,
,,,,,,,,3922,2022-04-06_16h10.39.311,ImplicitInfinitySC-FASTTASK,2021.2.3,Win32,59.49193884,,,,space,0.4374,,,,,,,,,,f,0,1.1225,,0,24,24,67,1,Gravity has a molecular structure,j,,,
,,,,,,,,3922,2022-04-06_16h10.39.311,ImplicitInfinitySC-FASTTASK,2021.2.3,Win32,59.49193884,,,,space,0.4114,,,,,,,,,,j,1,0.8762,,0,25,25,111,1,A circle is a flavor,j,,,
,,,,,,,,3922,2022-04-06_16h10.39.311,ImplicitInfinitySC-FASTTASK,2021.2.3,Win32,59.49193884,,,,space,0.3769,,,,,,,,,,f,1,1.1713,,0,26,26,33,1,Numbers are infinite,f,,,
,,,,,,,,3922,2022-04-06_16h10.39.311,ImplicitInfinitySC-FASTTASK,2021.2.3,Win32,59.49193884,,,,space,0.4499,,,,,,,,,,j,1,0.9252,,0,27,27,127,1,A zebra is used to write,j,,,
,,,,,,,,3922,2022-04-06_16h10.39.311,ImplicitInfinitySC-FASTTASK,2021.2.3,Win32,59.49193884,,,,space,0.5214,,,,,,,,,,f,0,0.7072,,0,28,28,32,1,Numbers are finite,j,,,
,,,,,,,,3922,2022-04-06_16h10.39.311,ImplicitInfinitySC-FASTTASK,2021.2.3,Win32,59.49193884,,,,space,0.3343,,,,,,,,,,f,1,0.9845,,0,29,29,102,1,The Earth is a planet,f,,,
,,,,,,,,3922,2022-04-06_16h10.39.311,ImplicitInfinitySC-FASTTASK,2021.2.3,Win32,59.49193884,,,,space,0.3686,,,,,,,,,,f,1,1.0463,,0,30,30,0,1,A minute is finite,f,,,
,,,,,,,,3922,2022-04-06_16h10.39.311,ImplicitInfinitySC-FASTTASK,2021.2.3,Win32,59.49193884,,,,space,0.3915,,,,,,,,,,f,1,1.3154,,0,31,31,47,1,The number five can always be further divided,f,,,
,,,,,,,,3922,2022-04-06_16h10.39.311,ImplicitInfinitySC-FASTTASK,2021.2.3,Win32,59.49193884,,,,space,0.5991,,,,,,,,,,j,0,0.8168,,0,32,32,12,1,An inch cannot go on forever,f,,,
,,,,,,,,3922,2022-04-06_16h10.39.311,ImplicitInfinitySC-FASTTASK,2021.2.3,Win32,59.49193884,,,,space,0.3549,,,,,,,,,,f,1,1.0051,,0,33,33,68,1,Algae is alive,f,,,
,,,,,,,,3922,2022-04-06_16h10.39.311,ImplicitInfinitySC-FASTTASK,2021.2.3,Win32,59.49193884,,,,space,0.4174,,,,,,,,,,f,1,0.8996,,0,34,34,8,1,An inch is finite,f,,,
,,,,,,,,3922,2022-04-06_16h10.39.311,ImplicitInfinitySC-FASTTASK,2021.2.3,Win32,59.49193884,,,,space,0.4266,,,,,,,,,,j,1,0.9466,,0,35,35,114,1,Lightbulbs are made of clay,j,,,
,,,,,,,,3922,2022-04-06_16h10.39.311,ImplicitInfinitySC-FASTTASK,2021.2.3,Win32,59.49193884,,,,space,0.8269,,,,,,,,,,j,1,1.743,,0,36,36,9,1,An inch is infinite,j,,,
,,,,,,,,3922,2022-04-06_16h10.39.311,ImplicitInfinitySC-FASTTASK,2021.2.3,Win32,59.49193884,,,,space,0.3339,,,,,,,,,,f,1,1.0159,,0,37,37,104,1,The United States has a president,f,,,
,,,,,,,,3922,2022-04-06_16h10.39.311,ImplicitInfinitySC-FASTTASK,2021.2.3,Win32,59.49193884,,,,space,0.3355,,,,,,,,,,f,1,1.299,,0,38,38,73,1,Bubbles can be put in a container,f,,,
,,,,,,,,3922,2022-04-06_16h10.39.311,ImplicitInfinitySC-FASTTASK,2021.2.3,Win32,59.49193884,,,,space,0.466,,,,,,,,,,f,1,0.9023,,0,39,39,88,1,This sentence is written in English,f,,,
,,,,,,,,3922,2022-04-06_16h10.39.311,ImplicitInfinitySC-FASTTASK,2021.2.3,Win32,59.49193884,,,,space,2.2146,,,,,,,,,,j,1,0.9761,space,0,40,40,65,1,Shadows are composed of matter,j,0.7986,,
,,,,,,,,3922,2022-04-06_16h10.39.311,ImplicitInfinitySC-FASTTASK,2021.2.3,Win32,59.49193884,,,,space,0.3051,,,,,,,,,,f,1,0.949,,0,41,41,50,1,Turtles need nutrients,f,,,
,,,,,,,,3922,2022-04-06_16h10.39.311,ImplicitInfinitySC-FASTTASK,2021.2.3,Win32,59.49193884,,,,space,0.297,,,,,,,,,,f,1,0.9508,,0,42,42,75,1,Frost is composed of matter,f,,,
,,,,,,,,3922,2022-04-06_16h10.39.311,ImplicitInfinitySC-FASTTASK,2021.2.3,Win32,59.49193884,,,,space,0.5998,,,,,,,,,,f,1,1.5691,,0,43,43,27,1,Space is endless,f,,,
,,,,,,,,3922,2022-04-06_16h10.39.311,ImplicitInfinitySC-FASTTASK,2021.2.3,Win32,59.49193884,,,,space,0.3563,,,,,,,,,,f,1,0.8172,,0,44,44,37,1,Numbers can go on forever,f,,,
,,,,,,,,3922,2022-04-06_16h10.39.311,ImplicitInfinitySC-FASTTASK,2021.2.3,Win32,59.49193884,,,,space,0.7643,,,,,,,,,,j,0,1.5787,,0,45,45,44,1,The number five cannot go on forever,f,,,
,,,,,,,,3922,2022-04-06_16h10.39.311,ImplicitInfinitySC-FASTTASK,2021.2.3,Win32,59.49193884,,,,space,0.4041,,,,,,,,,,j,1,1.0393,,0,46,46,3,1,A minute is endless,j,,,
,,,,,,,,3922,2022-04-06_16h10.39.311,ImplicitInfinitySC-FASTTASK,2021.2.3,Win32,59.49193884,,,,space,0.3234,,,,,,,,,,f,1,0.8512,,0,47,47,101,1,Jupiter is in our solar system,f,,,
,,,,,,,,3922,2022-04-06_16h10.39.311,ImplicitInfinitySC-FASTTASK,2021.2.3,Win32,59.49193884,,,,space,0.3076,,,,,,,,,,f,1,0.9413,,0,48,48,21,1,Time can go on forever,f,,,
,,,,,,,,3922,2022-04-06_16h10.39.311,ImplicitInfinitySC-FASTTASK,2021.2.3,Win32,59.49193884,,,,space,0.5114,,,,,,,,,,f,0,1.7501,,0,49,49,14,1,An inch cannot always be further divided,j,,,
,,,,,,,,3922,2022-04-06_16h10.39.311,ImplicitInfinitySC-FASTTASK,2021.2.3,Win32,59.49193884,,,,space,1.0096,,,,,,,,,,j,0,1.0012,,0,50,50,54,1,Dumbells are composed of matter,f,,,
,,,,,,,,3922,2022-04-06_16h10.39.311,ImplicitInfinitySC-FASTTASK,2021.2.3,Win32,59.49193884,,,,space,0.3676,,,,,,,,,,f,1,1.176,,0,51,51,94,1,Orange is a color,f,,,
,,,,,,,,3922,2022-04-06_16h10.39.311,ImplicitInfinitySC-FASTTASK,2021.2.3,Win32,59.49193884,,,,space,0.3722,,,,,,,,,,j,1,0.9665,,0,52,52,113,1,Magenta is a shape,j,,,
,,,,,,,,3922,2022-04-06_16h10.39.311,ImplicitInfinitySC-FASTTASK,2021.2.3,Win32,59.49193884,,,,space,0.3931,,,,,,,,,,f,0,1.1465,,0,53,53,66,1,Music has a molecular structure,j,,,
,,,,,,,,3922,2022-04-06_16h10.39.311,ImplicitInfinitySC-FASTTASK,2021.2.3,Win32,59.49193884,,,,space,0.4054,,,,,,,,,,j,1,1.1497,,0,54,54,124,1,The president of the United States is Oprah,j,,,
,,,,,,,,3922,2022-04-06_16h10.39.311,ImplicitInfinitySC-FASTTASK,2021.2.3,Win32,59.49193884,,,,space,0.3414,,,,,,,,,,f,1,0.7725,,0,55,55,100,1,A truck is a vehicle,f,,,
,,,,,,,,3922,2022-04-06_16h10.39.311,ImplicitInfinitySC-FASTTASK,2021.2.3,Win32,59.49193884,,,,space,0.3603,,,,,,,,,,j,1,0.8829,,0,56,56,81,1,Tables reproduce,j,,,
,,,,,,,,3922,2022-04-06_16h10.39.311,ImplicitInfinitySC-FASTTASK,2021.2.3,Win32,59.49193884,,,,space,0.4228,,,,,,,,,,j,1,0.9029,,0,57,57,78,1,Hammers are alive,j,,,
,,,,,,,,3922,2022-04-06_16h10.39.311,ImplicitInfinitySC-FASTTASK,2021.2.3,Win32,59.49193884,,,,space,0.3912,,,,,,,,,,f,0,0.8415,,0,58,58,1,1,A minute is infinite,j,,,
,,,,,,,,3922,2022-04-06_16h10.39.311,ImplicitInfinitySC-FASTTASK,2021.2.3,Win32,59.49193884,,,,space,0.3112,,,,,,,,,,f,1,1.2436,,0,59,59,55,1,Concrete is composed of matter,f,,,
,,,,,,,,3922,2022-04-06_16h10.39.311,ImplicitInfinitySC-FASTTASK,2021.2.3,Win32,59.49193884,,,,space,0.3641,,,,,,,,,,j,1,1.0497,,0,60,60,62,1,Helicopters reproduce,j,,,
,,,,,,,,3922,2022-04-06_16h10.39.311,ImplicitInfinitySC-FASTTASK,2021.2.3,Win32,59.49193884,,,,space,1.0398,,,,,,,,,,j,0,1.1667,,0,61,61,4,1,A minute cannot go on forever,f,,,
,,,,,,,,3922,2022-04-06_16h10.39.311,ImplicitInfinitySC-FASTTASK,2021.2.3,Win32,59.49193884,,,,space,0.3226,,,,,,,,,,j,1,1.0994,,0,62,62,123,1,Mississippi is a country,j,,,
,,,,,,,,3922,2022-04-06_16h10.39.311,ImplicitInfinitySC-FASTTASK,2021.2.3,Win32,59.49193884,,,,space,0.3662,,,,,,,,,,j,1,1.0467,,0,63,63,11,1,An inch is endless,j,,,
,,,,,,,,3922,2022-04-06_16h10.39.311,ImplicitInfinitySC-FASTTASK,2021.2.3,Win32,59.49193884,,,,space,0.3589,,,,,,,,,,j,1,1.001,,0,64,64,119,1,A motorcycle is a person,j,,,
,,,,,,,,3922,2022-04-06_16h10.39.311,ImplicitInfinitySC-FASTTASK,2021.2.3,Win32,59.49193884,,,,space,0.674,,,,,,,,,,j,1,1.9181,,0,65,65,38,1,Numbers cannot always be further divided,j,,,
,,,,,,,,3922,2022-04-06_16h10.39.311,ImplicitInfinitySC-FASTTASK,2021.2.3,Win32,59.49193884,,,,space,0.3956,,,,,,,,,,f,1,0.9726,,0,66,66,105,1,There are fifty states in the United States,f,,,
,,,,,,,,3922,2022-04-06_16h10.39.311,ImplicitInfinitySC-FASTTASK,2021.2.3,Win32,59.49193884,,,,space,0.3948,,,,,,,,,,j,1,0.8258,,0,67,67,110,1,A triangle is an animal,j,,,
,,,,,,,,3922,2022-04-06_16h10.39.311,ImplicitInfinitySC-FASTTASK,2021.2.3,Win32,59.49193884,,,,space,0.3213,,,,,,,,,,j,1,0.9956,,0,68,68,43,1,The number five is endless,j,,,
,,,,,,,,3922,2022-04-06_16h10.39.311,ImplicitInfinitySC-FASTTASK,2021.2.3,Win32,59.49193884,,,,space,0.3323,,,,,,,,,,j,1,0.9691,,0,69,69,59,1,Comets are alive,j,,,
,,,,,,,,3922,2022-04-06_16h10.39.311,ImplicitInfinitySC-FASTTASK,2021.2.3,Win32,59.49193884,,,,space,0.4199,,,,,,,,,,j,1,0.8886,,0,70,70,58,1,Clocks are alive,j,,,
,,,,,,,,3922,2022-04-06_16h10.39.311,ImplicitInfinitySC-FASTTASK,2021.2.3,Win32,59.49193884,,,,space,0.3476,,,,,,,,,,j,1,0.5514,,0,71,71,79,1,Forks are alive,j,,,
,,,,,,,,3922,2022-04-06_16h10.39.311,ImplicitInfinitySC-FASTTASK,2021.2.3,Win32,59.49193884,,,,space,0.3442,,,,,,,,,,f,1,0.9915,,0,72,72,70,1,Grass needs nutrients,f,,,
,,,,,,,,3922,2022-04-06_16h10.39.311,ImplicitInfinitySC-FASTTASK,2021.2.3,Win32,59.49193884,,,,space,0.3216,,,,,,,,,,f,1,0.6785,,0,73,73,69,1,Bacteria are alive,f,,,
,,,,,,,,3922,2022-04-06_16h10.39.311,ImplicitInfinitySC-FASTTASK,2021.2.3,Win32,59.49193884,,,,space,0.2756,,,,,,,,,,f,1,1.1179,,0,74,74,2,1,A minute has an end,f,,,
,,,,,,,,3922,2022-04-06_16h10.39.311,ImplicitInfinitySC-FASTTASK,2021.2.3,Win32,59.49193884,,,,space,0.3163,,,,,,,,,,f,1,1.3332,,0,75,75,53,1,Bricks can be put in a container,f,,,
,,,,,,,,3922,2022-04-06_16h10.39.311,ImplicitInfinitySC-FASTTASK,2021.2.3,Win32,59.49193884,,,,space,0.3838,,,,,,,,,,j,1,0.9772,,0,76,76,121,1,Jupiter is the planet we live on,j,,,
,,,,,,,,3922,2022-04-06_16h10.39.311,ImplicitInfinitySC-FASTTASK,2021.2.3,Win32,59.49193884,,,,space,0.3332,,,,,,,,,,f,1,1.0091,,0,77,77,89,1,A square is a shape,f,,,
,,,,,,,,3922,2022-04-06_16h10.39.311,ImplicitInfinitySC-FASTTASK,2021.2.3,Win32,59.49193884,,,,space,0.2969,,,,,,,,,,f,1,0.8739,,0,78,78,51,1,Tigers reproduce,f,,,
,,,,,,,,3922,2022-04-06_16h10.39.311,ImplicitInfinitySC-FASTTASK,2021.2.3,Win32,59.49193884,,,,space,0.5353,,,,,,,,,,j,1,1.522,,0,79,79,45,1,The number five can go on forever,j,,,
,,,,,,,,3922,2022-04-06_16h10.39.311,ImplicitInfinitySC-FASTTASK,2021.2.3,Win32,59.49193884,,,,space,0.3668,,,,,,,,,,j,1,1.332,,0,80,80,63,1,Color can be put in a container,j,,,
,,,,,,,,3922,2022-04-06_16h10.39.311,ImplicitInfinitySC-FASTTASK,2021.2.3,Win32,59.49193884,,,,,,,,,,,,,,,,,,,,,,,,,,,space,28.0697
