INSTRESP.keys,INSTRESP.rt,Instrloop.thisRepN,Instrloop.thisTrialN,Instrloop.thisN,Instrloop.thisIndex,Instrloop.ran,FastInstructions,participant,date,expName,psychopyVersion,OS,frameRate,key_resp_2.keys,key_resp_2.corr,key_resp_2.rt,Advance_Resp.keys,Advance_Resp.rt,Practice.thisRepN,Practice.thisTrialN,Practice.thisN,Practice.thisIndex,Practice.ran,practicetext,practicecorrect,key_resp_3.keys,key_resp_3.rt,key_resp.keys,key_resp.corr,key_resp.rt,encouragekey.keys,FastLoop.thisRepN,FastLoop.thisTrialN,FastLoop.thisN,FastLoop.thisIndex,FastLoop.ran,Statement,Correct,encouragekey.rt,endstudykey.keys,endstudykey.rt
space,9.9462,0,0,0,0,1,"You will be shown a total of 80 statements pertaining to mathematics, science, and social concepts. Your task is to determine whether each statement is true or false as quickly as possible without sacrificing accuracy. Some statements will be difficult and some will be easier.  We do not expect you to know the correct answer for all 80 statements.  Press SPACE to Continue",4056,2022-04-06_19h24.11.680,ImplicitInfinitySC-FASTTASK,2021.2.3,MacIntel,59.83008257,,,,,,,,,,,,,,,,,,,,,,,,,,,,
space,9.1637,0,1,1,1,1,"Each statement will appear on your screen for up to 4 seconds and you will have those 4 seconds to decide if it is true or false before the next statement appears. There will be a beep to inform you that you have 2.5 seconds remaining. Please make sure the sound on your computer is turned on. If you do not respond, that answer will be considered incorrect and the task will move on to the next statement. Press SPACE to continue",4056,2022-04-06_19h24.11.680,ImplicitInfinitySC-FASTTASK,2021.2.3,MacIntel,59.83008257,,,,,,,,,,,,,,,,,,,,,,,,,,,,
,,0,2,2,2,1,"If the statement is true, you will press the “F” key on your keyboard with your left pointer finger; if the statement is false, you will press the “J” key on your keyboard with your right pointer finger. Press SPACE to continue",4056,2022-04-06_19h24.11.680,ImplicitInfinitySC-FASTTASK,2021.2.3,MacIntel,59.83008257,,,,,,,,,,,,,,,,,,,,,,,,,,,,
space,3.4045,0,3,3,3,1,"Prior to completing the study, you will complete 10 practice trials to familiarize yourself with the task. Your performance on these trials will determine your participation in the following study. Press SPACE to continue.",4056,2022-04-06_19h24.11.680,ImplicitInfinitySC-FASTTASK,2021.2.3,MacIntel,59.83008257,,,,,,,,,,,,,,,,,,,,,,,,,,,,
space,5.0322,0,4,4,4,1,"If the statement is true, press the “F” key on your keyboard with your left pointer finger; if the statement is false, press the “J” key on your keyboard with your right pointer finger. Press SPACE to continue",4056,2022-04-06_19h24.11.680,ImplicitInfinitySC-FASTTASK,2021.2.3,MacIntel,59.83008257,,,,,,,,,,,,,,,,,,,,,,,,,,,,
,,,,,,,,4056,2022-04-06_19h24.11.680,ImplicitInfinitySC-FASTTASK,2021.2.3,MacIntel,59.83008257,f,1,1.6801,space,6.6441,0,0,0,4,1,Humans cannot breathe water,f,,,,,,,,,,,,,,,,
,,,,,,,,4056,2022-04-06_19h24.11.680,ImplicitInfinitySC-FASTTASK,2021.2.3,MacIntel,59.83008257,j,1,1.5549,space,1.996,0,1,1,8,1,Mississippi is a country,j,,,,,,,,,,,,,,,,
,,,,,,,,4056,2022-04-06_19h24.11.680,ImplicitInfinitySC-FASTTASK,2021.2.3,MacIntel,59.83008257,j,1,1.4231,space,1.1448,0,2,2,5,1,A truck is an animal,j,,,,,,,,,,,,,,,,
,,,,,,,,4056,2022-04-06_19h24.11.680,ImplicitInfinitySC-FASTTASK,2021.2.3,MacIntel,59.83008257,f,1,1.4307,space,0.8926,0,3,3,0,1,A circle is a shape,f,,,,,,,,,,,,,,,,
,,,,,,,,4056,2022-04-06_19h24.11.680,ImplicitInfinitySC-FASTTASK,2021.2.3,MacIntel,59.83008257,j,1,1.7052,space,1.0308,0,4,4,9,1,Humans cannot eat food,j,,,,,,,,,,,,,,,,
,,,,,,,,4056,2022-04-06_19h24.11.680,ImplicitInfinitySC-FASTTASK,2021.2.3,MacIntel,59.83008257,j,1,1.3294,space,1.1627,0,5,5,7,1,The Earth is a star,j,,,,,,,,,,,,,,,,
,,,,,,,,4056,2022-04-06_19h24.11.680,ImplicitInfinitySC-FASTTASK,2021.2.3,MacIntel,59.83008257,f,1,1.1968,space,0.9531,0,6,6,3,1,A clock is used to tell time,f,,,,,,,,,,,,,,,,
,,,,,,,,4056,2022-04-06_19h24.11.680,ImplicitInfinitySC-FASTTASK,2021.2.3,MacIntel,59.83008257,j,1,1.6886,space,0.9051,0,7,7,6,1,Jupiter is the planet we live on,j,,,,,,,,,,,,,,,,
,,,,,,,,4056,2022-04-06_19h24.11.680,ImplicitInfinitySC-FASTTASK,2021.2.3,MacIntel,59.83008257,f,1,1.2021,space,1.0934,0,8,8,1,1,Dinosaurs are extinct,f,,,,,,,,,,,,,,,,
,,,,,,,,4056,2022-04-06_19h24.11.680,ImplicitInfinitySC-FASTTASK,2021.2.3,MacIntel,59.83008257,f,1,1.0732,space,0.7635,0,9,9,2,1,Magenta is a color,f,,,,,,,,,,,,,,,,
,,,,,,,,4056,2022-04-06_19h24.11.680,ImplicitInfinitySC-FASTTASK,2021.2.3,MacIntel,59.83008257,,,,space,1.1395,,,,,,,,space,2.4908,f,1,0.7778,,0,0,0,95,1,Yellow is a color,f,,,
,,,,,,,,4056,2022-04-06_19h24.11.680,ImplicitInfinitySC-FASTTASK,2021.2.3,MacIntel,59.83008257,,,,space,0.5603,,,,,,,,,,f,1,1.9091,,0,1,1,12,1,An inch cannot go on forever,f,,,
,,,,,,,,4056,2022-04-06_19h24.11.680,ImplicitInfinitySC-FASTTASK,2021.2.3,MacIntel,59.83008257,,,,space,0.9201,,,,,,,,,,f,1,1.1446,,0,2,2,48,1,Crocodiles are alive,f,,,
,,,,,,,,4056,2022-04-06_19h24.11.680,ImplicitInfinitySC-FASTTASK,2021.2.3,MacIntel,59.83008257,,,,space,1.0455,,,,,,,,,,j,1,1.3084,,0,3,3,112,1,Dinosaurs are not extinct,j,,,
,,,,,,,,4056,2022-04-06_19h24.11.680,ImplicitInfinitySC-FASTTASK,2021.2.3,MacIntel,59.83008257,,,,space,1.0929,,,,,,,,,,f,1,1.586,,0,4,4,57,1,Rocks have a molecular structure,f,,,
,,,,,,,,4056,2022-04-06_19h24.11.680,ImplicitInfinitySC-FASTTASK,2021.2.3,MacIntel,59.83008257,,,,space,0.7753,,,,,,,,,,f,1,1.174,,0,5,5,69,1,Bacteria are alive,f,,,
,,,,,,,,4056,2022-04-06_19h24.11.680,ImplicitInfinitySC-FASTTASK,2021.2.3,MacIntel,59.83008257,,,,space,0.8755,,,,,,,,,,j,1,1.0226,,0,6,6,123,1,Mississippi is a country,j,,,
,,,,,,,,4056,2022-04-06_19h24.11.680,ImplicitInfinitySC-FASTTASK,2021.2.3,MacIntel,59.83008257,,,,space,0.9226,,,,,,,,,,j,1,0.9958,,0,7,7,78,1,Hammers are alive,j,,,
,,,,,,,,4056,2022-04-06_19h24.11.680,ImplicitInfinitySC-FASTTASK,2021.2.3,MacIntel,59.83008257,,,,space,0.9609,,,,,,,,,,f,1,1.4288,,0,8,8,37,1,Numbers can go on forever,f,,,
,,,,,,,,4056,2022-04-06_19h24.11.680,ImplicitInfinitySC-FASTTASK,2021.2.3,MacIntel,59.83008257,,,,space,1.0758,,,,,,,,,,j,1,1.4556,,0,9,9,120,1,A truck is an animal,j,,,
,,,,,,,,4056,2022-04-06_19h24.11.680,ImplicitInfinitySC-FASTTASK,2021.2.3,MacIntel,59.83008257,,,,space,0.6408,,,,,,,,,,j,1,1.1912,,0,10,10,111,1,A circle is a flavor,j,,,
,,,,,,,,4056,2022-04-06_19h24.11.680,ImplicitInfinitySC-FASTTASK,2021.2.3,MacIntel,59.83008257,,,,space,1.924,,,,,,,,,,j,1,1.9283,,0,11,11,36,1,Numbers cannot go on forever,j,,,
,,,,,,,,4056,2022-04-06_19h24.11.680,ImplicitInfinitySC-FASTTASK,2021.2.3,MacIntel,59.83008257,,,,space,0.9402,,,,,,,,,,j,1,0.8697,,0,12,12,58,1,Clocks are alive,j,,,
,,,,,,,,4056,2022-04-06_19h24.11.680,ImplicitInfinitySC-FASTTASK,2021.2.3,MacIntel,59.83008257,,,,space,0.9233,,,,,,,,,,f,0,2.3904,,0,13,13,38,1,Numbers cannot always be further divided,j,,,
,,,,,,,,4056,2022-04-06_19h24.11.680,ImplicitInfinitySC-FASTTASK,2021.2.3,MacIntel,59.83008257,,,,space,0.6396,,,,,,,,,,j,1,1.0866,,0,14,14,115,1,Yellow is an animal,j,,,
,,,,,,,,4056,2022-04-06_19h24.11.680,ImplicitInfinitySC-FASTTASK,2021.2.3,MacIntel,59.83008257,,,,space,0.6248,,,,,,,,,,j,1,1.3884,,0,15,15,45,1,The number five can go on forever,j,,,
,,,,,,,,4056,2022-04-06_19h24.11.680,ImplicitInfinitySC-FASTTASK,2021.2.3,MacIntel,59.83008257,,,,space,0.6486,,,,,,,,,,j,1,1.3527,,0,16,16,122,1,The Earth is a star,j,,,
,,,,,,,,4056,2022-04-06_19h24.11.680,ImplicitInfinitySC-FASTTASK,2021.2.3,MacIntel,59.83008257,,,,space,1.0035,,,,,,,,,,j,1,1.4176,,0,17,17,26,1,Space has an end,j,,,
,,,,,,,,4056,2022-04-06_19h24.11.680,ImplicitInfinitySC-FASTTASK,2021.2.3,MacIntel,59.83008257,,,,space,0.8233,,,,,,,,,,f,1,1.685,,0,18,18,75,1,Frost is composed of matter,f,,,
,,,,,,,,4056,2022-04-06_19h24.11.680,ImplicitInfinitySC-FASTTASK,2021.2.3,MacIntel,59.83008257,,,,space,0.7218,,,,,,,,,,f,1,1.6004,,0,19,19,42,1,The number five has an end,f,,,
,,,,,,,,4056,2022-04-06_19h24.11.680,ImplicitInfinitySC-FASTTASK,2021.2.3,MacIntel,59.83008257,,,,space,0.7198,,,,,,,,,,f,1,0.924,,0,20,20,68,1,Algae is alive,f,,,
,,,,,,,,4056,2022-04-06_19h24.11.680,ImplicitInfinitySC-FASTTASK,2021.2.3,MacIntel,59.83008257,,,,space,0.8537,,,,,,,,,,f,1,1.0681,,0,21,21,27,1,Space is endless,f,,,
,,,,,,,,4056,2022-04-06_19h24.11.680,ImplicitInfinitySC-FASTTASK,2021.2.3,MacIntel,59.83008257,,,,space,0.8956,,,,,,,,,,j,1,1.4451,,0,22,22,60,1,Robots need nutrients,j,,,
,,,,,,,,4056,2022-04-06_19h24.11.680,ImplicitInfinitySC-FASTTASK,2021.2.3,MacIntel,59.83008257,,,,space,0.7476,,,,,,,,,,f,1,1.41,,0,23,23,90,1,A triangle is not an animal,f,,,
,,,,,,,,4056,2022-04-06_19h24.11.680,ImplicitInfinitySC-FASTTASK,2021.2.3,MacIntel,59.83008257,,,,space,0.8557,,,,,,,,,,j,1,1.075,,0,24,24,59,1,Comets are alive,j,,,
,,,,,,,,4056,2022-04-06_19h24.11.680,ImplicitInfinitySC-FASTTASK,2021.2.3,MacIntel,59.83008257,,,,space,0.8395,,,,,,,,,,j,1,1.304,,0,25,25,9,1,An inch is infinite,j,,,
,,,,,,,,4056,2022-04-06_19h24.11.680,ImplicitInfinitySC-FASTTASK,2021.2.3,MacIntel,59.83008257,,,,space,0.7547,,,,,,,,,,j,1,2.0342,,0,26,26,28,1,Space cannot go on forever,j,,,
,,,,,,,,4056,2022-04-06_19h24.11.680,ImplicitInfinitySC-FASTTASK,2021.2.3,MacIntel,59.83008257,,,,space,0.9191,,,,,,,,,,j,1,1.646,,0,27,27,79,1,Forks are alive,j,,,
,,,,,,,,4056,2022-04-06_19h24.11.680,ImplicitInfinitySC-FASTTASK,2021.2.3,MacIntel,59.83008257,,,,space,0.7075,,,,,,,,,,f,1,1.2558,,0,28,28,99,1,A motorcycle is a vehicle,f,,,
,,,,,,,,4056,2022-04-06_19h24.11.680,ImplicitInfinitySC-FASTTASK,2021.2.3,MacIntel,59.83008257,,,,space,0.7243,,,,,,,,,,f,1,1.2398,,0,29,29,50,1,Turtles need nutrients,f,,,
,,,,,,,,4056,2022-04-06_19h24.11.680,ImplicitInfinitySC-FASTTASK,2021.2.3,MacIntel,59.83008257,,,,space,1.0703,,,,,,,,,,f,0,1.5579,,0,30,30,63,1,Color can be put in a container,j,,,
,,,,,,,,4056,2022-04-06_19h24.11.680,ImplicitInfinitySC-FASTTASK,2021.2.3,MacIntel,59.83008257,,,,space,0.6465,,,,,,,,,,f,1,1.4716,,0,31,31,97,1,Dolphins can swim in the ocean,f,,,
,,,,,,,,4056,2022-04-06_19h24.11.680,ImplicitInfinitySC-FASTTASK,2021.2.3,MacIntel,59.83008257,,,,space,0.5348,,,,,,,,,,f,1,1.0911,,0,32,32,92,1,Dinosaurs are extinct,f,,,
,,,,,,,,4056,2022-04-06_19h24.11.680,ImplicitInfinitySC-FASTTASK,2021.2.3,MacIntel,59.83008257,,,,space,0.6694,,,,,,,,,,f,1,1.5893,,0,33,33,73,1,Bubbles can be put in a container,f,,,
,,,,,,,,4056,2022-04-06_19h24.11.680,ImplicitInfinitySC-FASTTASK,2021.2.3,MacIntel,59.83008257,,,,space,1.0661,,,,,,,,,,f,0,1.7066,,0,34,34,24,1,Space is finite,j,,,
,,,,,,,,4056,2022-04-06_19h24.11.680,ImplicitInfinitySC-FASTTASK,2021.2.3,MacIntel,59.83008257,,,,space,0.6632,,,,,,,,,,j,1,1.6533,,0,35,35,85,1,Thoughts are composed of matter,j,,,
,,,,,,,,4056,2022-04-06_19h24.11.680,ImplicitInfinitySC-FASTTASK,2021.2.3,MacIntel,59.83008257,,,,space,0.8917,,,,,,,,,,j,1,1.3375,,0,36,36,81,1,Tables reproduce,j,,,
,,,,,,,,4056,2022-04-06_19h24.11.680,ImplicitInfinitySC-FASTTASK,2021.2.3,MacIntel,59.83008257,,,,space,0.584,,,,,,,,,,j,0,1.4043,,0,37,37,71,1,Oaks reproduce,f,,,
,,,,,,,,4056,2022-04-06_19h24.11.680,ImplicitInfinitySC-FASTTASK,2021.2.3,MacIntel,59.83008257,,,,space,0.9032,,,,,,,,,,f,1,2.3882,,0,38,38,23,1,Time can always be further divided,f,,,
,,,,,,,,4056,2022-04-06_19h24.11.680,ImplicitInfinitySC-FASTTASK,2021.2.3,MacIntel,59.83008257,,,,space,0.5635,,,,,,,,,,f,1,1.2816,,0,39,39,74,1,Foam is composed of matter,f,,,
,,,,,,,,4056,2022-04-06_19h24.11.680,ImplicitInfinitySC-FASTTASK,2021.2.3,MacIntel,59.83008257,,,,space,1.6377,,,,,,,,,,f,1,1.2873,space,0,40,40,56,1,Diamonds have a molecular structure,f,2.6954,,
,,,,,,,,4056,2022-04-06_19h24.11.680,ImplicitInfinitySC-FASTTASK,2021.2.3,MacIntel,59.83008257,,,,space,0.9093,,,,,,,,,,f,0,1.9936,,0,41,41,6,1,A minute cannot always be further divided,j,,,
,,,,,,,,4056,2022-04-06_19h24.11.680,ImplicitInfinitySC-FASTTASK,2021.2.3,MacIntel,59.83008257,,,,space,0.7692,,,,,,,,,,f,1,1.0915,,0,42,42,89,1,A square is a shape,f,,,
,,,,,,,,4056,2022-04-06_19h24.11.680,ImplicitInfinitySC-FASTTASK,2021.2.3,MacIntel,59.83008257,,,,space,0.7924,,,,,,,,,,f,1,1.1369,,0,43,43,29,1,Space can go on forever,f,,,
,,,,,,,,4056,2022-04-06_19h24.11.680,ImplicitInfinitySC-FASTTASK,2021.2.3,MacIntel,59.83008257,,,,space,0.6023,,,,,,,,,,j,1,1.047,,0,44,44,13,1,An inch can go on forever,j,,,
,,,,,,,,4056,2022-04-06_19h24.11.680,ImplicitInfinitySC-FASTTASK,2021.2.3,MacIntel,59.83008257,,,,space,1.9969,,,,,,,,,,j,0,1.7083,,0,45,45,35,1,Numbers are endless,f,,,
,,,,,,,,4056,2022-04-06_19h24.11.680,ImplicitInfinitySC-FASTTASK,2021.2.3,MacIntel,59.83008257,,,,space,1.3711,,,,,,,,,,j,1,1.526,,0,46,46,20,1,Time cannot go on forever,j,,,
,,,,,,,,4056,2022-04-06_19h24.11.680,ImplicitInfinitySC-FASTTASK,2021.2.3,MacIntel,59.83008257,,,,space,0.7515,,,,,,,,,,f,1,1.0951,,0,47,47,98,1,A clock is used to tell time,f,,,
,,,,,,,,4056,2022-04-06_19h24.11.680,ImplicitInfinitySC-FASTTASK,2021.2.3,MacIntel,59.83008257,,,,space,0.945,,,,,,,,,,j,1,1.7288,,0,48,48,65,1,Shadows are composed of matter,j,,,
,,,,,,,,4056,2022-04-06_19h24.11.680,ImplicitInfinitySC-FASTTASK,2021.2.3,MacIntel,59.83008257,,,,space,1.7303,,,,,,,,,,f,1,1.507,,0,49,49,17,1,Time is infinite,f,,,
,,,,,,,,4056,2022-04-06_19h24.11.680,ImplicitInfinitySC-FASTTASK,2021.2.3,MacIntel,59.83008257,,,,space,0.794,,,,,,,,,,j,1,1.3733,,0,50,50,121,1,Jupiter is the planet we live on,j,,,
,,,,,,,,4056,2022-04-06_19h24.11.680,ImplicitInfinitySC-FASTTASK,2021.2.3,MacIntel,59.83008257,,,,space,0.7792,,,,,,,,,,j,0,1.6517,,0,51,51,47,1,The number five can always be further divided,f,,,
,,,,,,,,4056,2022-04-06_19h24.11.680,ImplicitInfinitySC-FASTTASK,2021.2.3,MacIntel,59.83008257,,,,space,1.0196,,,,,,,,,,j,1,1.2207,,0,52,52,18,1,Time has an end,j,,,
,,,,,,,,4056,2022-04-06_19h24.11.680,ImplicitInfinitySC-FASTTASK,2021.2.3,MacIntel,59.83008257,,,,space,0.9773,,,,,,,,,,f,0,0.8755,,0,53,53,113,1,Magenta is a shape,j,,,
,,,,,,,,4056,2022-04-06_19h24.11.680,ImplicitInfinitySC-FASTTASK,2021.2.3,MacIntel,59.83008257,,,,space,0.8029,,,,,,,,,,j,1,1.1879,,0,54,54,62,1,Helicopters reproduce,j,,,
,,,,,,,,4056,2022-04-06_19h24.11.680,ImplicitInfinitySC-FASTTASK,2021.2.3,MacIntel,59.83008257,,,,space,0.871,,,,,,,,,,j,1,2.0448,,0,55,55,67,1,Gravity has a molecular structure,j,,,
,,,,,,,,4056,2022-04-06_19h24.11.680,ImplicitInfinitySC-FASTTASK,2021.2.3,MacIntel,59.83008257,,,,space,0.6695,,,,,,,,,,j,1,1.1028,,0,56,56,119,1,A motorcycle is a person,j,,,
,,,,,,,,4056,2022-04-06_19h24.11.680,ImplicitInfinitySC-FASTTASK,2021.2.3,MacIntel,59.83008257,,,,space,1.0536,,,,,,,,,,f,1,1.6992,,0,57,57,8,1,An inch is finite,f,,,
,,,,,,,,4056,2022-04-06_19h24.11.680,ImplicitInfinitySC-FASTTASK,2021.2.3,MacIntel,59.83008257,,,,space,0.8651,,,,,,,,,,j,1,1.7127,,0,58,58,32,1,Numbers are finite,j,,,
,,,,,,,,4056,2022-04-06_19h24.11.680,ImplicitInfinitySC-FASTTASK,2021.2.3,MacIntel,59.83008257,,,,space,0.7246,,,,,,,,,,f,1,1.6628,,0,59,59,105,1,There are fifty states in the United States,f,,,
,,,,,,,,4056,2022-04-06_19h24.11.680,ImplicitInfinitySC-FASTTASK,2021.2.3,MacIntel,59.83008257,,,,space,0.97,,,,,,,,,,j,1,0.9299,,0,60,60,109,1,A square is a color,j,,,
,,,,,,,,4056,2022-04-06_19h24.11.680,ImplicitInfinitySC-FASTTASK,2021.2.3,MacIntel,59.83008257,,,,space,0.7601,,,,,,,,,,j,1,1.2579,,0,61,61,126,1,Humans can breathe water,j,,,
,,,,,,,,4056,2022-04-06_19h24.11.680,ImplicitInfinitySC-FASTTASK,2021.2.3,MacIntel,59.83008257,,,,space,0.6834,,,,,,,,,,j,1,1.0554,,0,62,62,110,1,A triangle is an animal,j,,,
,,,,,,,,4056,2022-04-06_19h24.11.680,ImplicitInfinitySC-FASTTASK,2021.2.3,MacIntel,59.83008257,,,,space,0.7767,,,,,,,,,,f,1,2.0158,,0,63,63,103,1,The United States is a country,f,,,
,,,,,,,,4056,2022-04-06_19h24.11.680,ImplicitInfinitySC-FASTTASK,2021.2.3,MacIntel,59.83008257,,,,space,0.5689,,,,,,,,,,f,1,1.2033,,0,64,64,104,1,The United States has a president,f,,,
,,,,,,,,4056,2022-04-06_19h24.11.680,ImplicitInfinitySC-FASTTASK,2021.2.3,MacIntel,59.83008257,,,,space,0.9533,,,,,,,,,,j,1,1.3373,,0,65,65,64,1,Echoes are composed of matter,j,,,
,,,,,,,,4056,2022-04-06_19h24.11.680,ImplicitInfinitySC-FASTTASK,2021.2.3,MacIntel,59.83008257,,,,space,0.7389,,,,,,,,,,f,1,1.6533,,0,66,66,106,1,Humans cannot breathe water,f,,,
,,,,,,,,4056,2022-04-06_19h24.11.680,ImplicitInfinitySC-FASTTASK,2021.2.3,MacIntel,59.83008257,,,,space,0.6522,,,,,,,,,,j,1,1.1014,,0,67,67,5,1,A minute can go on forever,j,,,
,,,,,,,,4056,2022-04-06_19h24.11.680,ImplicitInfinitySC-FASTTASK,2021.2.3,MacIntel,59.83008257,,,,space,1.4212,,,,,,,,,,j,1,2.0373,,0,68,68,116,1,Fish cannot swim in the ocean,j,,,
,,,,,,,,4056,2022-04-06_19h24.11.680,ImplicitInfinitySC-FASTTASK,2021.2.3,MacIntel,59.83008257,,,,space,0.6959,,,,,,,,,,j,0,1.2541,,0,69,69,72,1,Mushrooms reproduce,f,,,
,,,,,,,,4056,2022-04-06_19h24.11.680,ImplicitInfinitySC-FASTTASK,2021.2.3,MacIntel,59.83008257,,,,space,1.0872,,,,,,,,,,f,0,2.1617,,0,70,70,22,1,Time cannot always be further divided,j,,,
,,,,,,,,4056,2022-04-06_19h24.11.680,ImplicitInfinitySC-FASTTASK,2021.2.3,MacIntel,59.83008257,,,,space,0.7027,,,,,,,,,,f,1,1.7032,,0,71,71,40,1,The number five is finite,f,,,
,,,,,,,,4056,2022-04-06_19h24.11.680,ImplicitInfinitySC-FASTTASK,2021.2.3,MacIntel,59.83008257,,,,space,0.463,,,,,,,,,,f,1,0.8027,,0,72,72,94,1,Orange is a color,f,,,
,,,,,,,,4056,2022-04-06_19h24.11.680,ImplicitInfinitySC-FASTTASK,2021.2.3,MacIntel,59.83008257,,,,space,0.8729,,,,,,,,,,j,0,1.2619,,0,73,73,7,1,A minute can always be further divided,f,,,
,,,,,,,,4056,2022-04-06_19h24.11.680,ImplicitInfinitySC-FASTTASK,2021.2.3,MacIntel,59.83008257,,,,space,0.8538,,,,,,,,,,j,0,1.3296,,0,74,74,15,1,An inch can be always further divided,f,,,
,,,,,,,,4056,2022-04-06_19h24.11.680,ImplicitInfinitySC-FASTTASK,2021.2.3,MacIntel,59.83008257,,,,space,0.9926,,,,,,,,,,j,1,1.4711,,0,75,75,124,1,The president of the United States is Oprah,j,,,
,,,,,,,,4056,2022-04-06_19h24.11.680,ImplicitInfinitySC-FASTTASK,2021.2.3,MacIntel,59.83008257,,,,space,0.6692,,,,,,,,,,f,1,1.6383,,0,76,76,76,1,Pollen has a molecular structure,f,,,
,,,,,,,,4056,2022-04-06_19h24.11.680,ImplicitInfinitySC-FASTTASK,2021.2.3,MacIntel,59.83008257,,,,space,0.6024,,,,,,,,,,f,1,1.4021,,0,77,77,55,1,Concrete is composed of matter,f,,,
,,,,,,,,4056,2022-04-06_19h24.11.680,ImplicitInfinitySC-FASTTASK,2021.2.3,MacIntel,59.83008257,,,,space,0.7862,,,,,,,,,,j,1,1.1726,,0,78,78,84,1,Silence is composed of matter,j,,,
,,,,,,,,4056,2022-04-06_19h24.11.680,ImplicitInfinitySC-FASTTASK,2021.2.3,MacIntel,59.83008257,,,,space,1.5383,,,,,,,,,,j,1,1.5049,,0,79,79,117,1,Dolphins cannot swim in the ocean,j,,,
,,,,,,,,4056,2022-04-06_19h24.11.680,ImplicitInfinitySC-FASTTASK,2021.2.3,MacIntel,59.83008257,,,,space,0.6631,,,,,,,,,,f,1,1.1704,,0,80,80,54,1,Dumbells are composed of matter,f,,,
,,,,,,,,4056,2022-04-06_19h24.11.680,ImplicitInfinitySC-FASTTASK,2021.2.3,MacIntel,59.83008257,,,,,,,,,,,,,,,,,,,,,,,,,,,space,22.8081
