INSTRESP.keys,INSTRESP.rt,Instrloop.thisRepN,Instrloop.thisTrialN,Instrloop.thisN,Instrloop.thisIndex,Instrloop.ran,FastInstructions,participant,date,expName,psychopyVersion,OS,frameRate,key_resp_2.keys,key_resp_2.corr,key_resp_2.rt,Advance_Resp.keys,Advance_Resp.rt,Practice.thisRepN,Practice.thisTrialN,Practice.thisN,Practice.thisIndex,Practice.ran,practicetext,practicecorrect,key_resp_3.keys,key_resp_3.rt,key_resp.keys,key_resp.corr,key_resp.rt,encouragekey.keys,FastLoop.thisRepN,FastLoop.thisTrialN,FastLoop.thisN,FastLoop.thisIndex,FastLoop.ran,Statement,Correct,encouragekey.rt,endstudykey.keys,endstudykey.rt
space,7.0866,0,0,0,0,1,"You will be shown a total of 80 statements pertaining to mathematics, science, and social concepts. Your task is to determine whether each statement is true or false as quickly as possible without sacrificing accuracy. Some statements will be difficult and some will be easier.  We do not expect you to know the correct answer for all 80 statements.  Press SPACE to Continue",4182,2022-04-06_20h27.47.968,ImplicitInfinitySC-FASTTASK,2021.2.3,Win32,60.31726883,,,,,,,,,,,,,,,,,,,,,,,,,,,,
space,7.2171,0,1,1,1,1,"Each statement will appear on your screen for up to 4 seconds and you will have those 4 seconds to decide if it is true or false before the next statement appears. There will be a beep to inform you that you have 2.5 seconds remaining. Please make sure the sound on your computer is turned on. If you do not respond, that answer will be considered incorrect and the task will move on to the next statement. Press SPACE to continue",4182,2022-04-06_20h27.47.968,ImplicitInfinitySC-FASTTASK,2021.2.3,Win32,60.31726883,,,,,,,,,,,,,,,,,,,,,,,,,,,,
space,4.5018,0,2,2,2,1,"If the statement is true, you will press the “F” key on your keyboard with your left pointer finger; if the statement is false, you will press the “J” key on your keyboard with your right pointer finger. Press SPACE to continue",4182,2022-04-06_20h27.47.968,ImplicitInfinitySC-FASTTASK,2021.2.3,Win32,60.31726883,,,,,,,,,,,,,,,,,,,,,,,,,,,,
space,6.8166,0,3,3,3,1,"Prior to completing the study, you will complete 10 practice trials to familiarize yourself with the task. Your performance on these trials will determine your participation in the following study. Press SPACE to continue.",4182,2022-04-06_20h27.47.968,ImplicitInfinitySC-FASTTASK,2021.2.3,Win32,60.31726883,,,,,,,,,,,,,,,,,,,,,,,,,,,,
space,2.7187,0,4,4,4,1,"If the statement is true, press the “F” key on your keyboard with your left pointer finger; if the statement is false, press the “J” key on your keyboard with your right pointer finger. Press SPACE to continue",4182,2022-04-06_20h27.47.968,ImplicitInfinitySC-FASTTASK,2021.2.3,Win32,60.31726883,,,,,,,,,,,,,,,,,,,,,,,,,,,,
,,,,,,,,4182,2022-04-06_20h27.47.968,ImplicitInfinitySC-FASTTASK,2021.2.3,Win32,60.31726883,j,1,3.4901,space,0.9622,0,0,0,9,1,Humans cannot eat food,j,,,,,,,,,,,,,,,,
,,,,,,,,4182,2022-04-06_20h27.47.968,ImplicitInfinitySC-FASTTASK,2021.2.3,Win32,60.31726883,j,0,3.155,space,2.5001,0,1,1,1,1,Dinosaurs are extinct,f,,,,,,,,,,,,,,,,
,,,,,,,,4182,2022-04-06_20h27.47.968,ImplicitInfinitySC-FASTTASK,2021.2.3,Win32,60.31726883,j,1,2.1838,space,0.8035,0,2,2,8,1,Mississippi is a country,j,,,,,,,,,,,,,,,,
,,,,,,,,4182,2022-04-06_20h27.47.968,ImplicitInfinitySC-FASTTASK,2021.2.3,Win32,60.31726883,j,1,1.3832,space,0.5202,0,3,3,7,1,The Earth is a star,j,,,,,,,,,,,,,,,,
,,,,,,,,4182,2022-04-06_20h27.47.968,ImplicitInfinitySC-FASTTASK,2021.2.3,Win32,60.31726883,j,1,1.0279,space,0.5434,0,4,4,5,1,A truck is an animal,j,,,,,,,,,,,,,,,,
,,,,,,,,4182,2022-04-06_20h27.47.968,ImplicitInfinitySC-FASTTASK,2021.2.3,Win32,60.31726883,f,1,1.2835,space,1.0749,0,5,5,0,1,A circle is a shape,f,,,,,,,,,,,,,,,,
,,,,,,,,4182,2022-04-06_20h27.47.968,ImplicitInfinitySC-FASTTASK,2021.2.3,Win32,60.31726883,j,1,1.5005,space,0.6029,0,6,6,6,1,Jupiter is the planet we live on,j,,,,,,,,,,,,,,,,
,,,,,,,,4182,2022-04-06_20h27.47.968,ImplicitInfinitySC-FASTTASK,2021.2.3,Win32,60.31726883,f,1,1.2006,space,1.2457,0,7,7,3,1,A clock is used to tell time,f,,,,,,,,,,,,,,,,
,,,,,,,,4182,2022-04-06_20h27.47.968,ImplicitInfinitySC-FASTTASK,2021.2.3,Win32,60.31726883,j,0,1.8439,space,0.4924,0,8,8,4,1,Humans cannot breathe water,f,,,,,,,,,,,,,,,,
,,,,,,,,4182,2022-04-06_20h27.47.968,ImplicitInfinitySC-FASTTASK,2021.2.3,Win32,60.31726883,f,1,1.3956,space,0.4006,0,9,9,2,1,Magenta is a color,f,,,,,,,,,,,,,,,,
,,,,,,,,4182,2022-04-06_20h27.47.968,ImplicitInfinitySC-FASTTASK,2021.2.3,Win32,60.31726883,,,,space,0.6008,,,,,,,,space,3.1598,f,1,0.9852,,0,0,0,91,1,A circle is a shape,f,,,
,,,,,,,,4182,2022-04-06_20h27.47.968,ImplicitInfinitySC-FASTTASK,2021.2.3,Win32,60.31726883,,,,space,0.4097,,,,,,,,,,j,1,2.0178,,0,1,1,85,1,Thoughts are composed of matter,j,,,
,,,,,,,,4182,2022-04-06_20h27.47.968,ImplicitInfinitySC-FASTTASK,2021.2.3,Win32,60.31726883,,,,space,0.3122,,,,,,,,,,j,1,1.1624,,0,2,2,62,1,Helicopters reproduce,j,,,
,,,,,,,,4182,2022-04-06_20h27.47.968,ImplicitInfinitySC-FASTTASK,2021.2.3,Win32,60.31726883,,,,space,0.42,,,,,,,,,,j,1,2.5836,,0,3,3,116,1,Fish cannot swim in the ocean,j,,,
,,,,,,,,4182,2022-04-06_20h27.47.968,ImplicitInfinitySC-FASTTASK,2021.2.3,Win32,60.31726883,,,,space,0.3049,,,,,,,,,,j,0,1.5675,,0,4,4,74,1,Foam is composed of matter,f,,,
,,,,,,,,4182,2022-04-06_20h27.47.968,ImplicitInfinitySC-FASTTASK,2021.2.3,Win32,60.31726883,,,,space,0.2669,,,,,,,,,,j,0,1.2771,,0,5,5,40,1,The number five is finite,f,,,
,,,,,,,,4182,2022-04-06_20h27.47.968,ImplicitInfinitySC-FASTTASK,2021.2.3,Win32,60.31726883,,,,space,0.2617,,,,,,,,,,j,0,1.2426,,0,6,6,106,1,Humans cannot breathe water,f,,,
,,,,,,,,4182,2022-04-06_20h27.47.968,ImplicitInfinitySC-FASTTASK,2021.2.3,Win32,60.31726883,,,,space,0.3177,,,,,,,,,,f,1,1.92,,0,7,7,76,1,Pollen has a molecular structure,f,,,
,,,,,,,,4182,2022-04-06_20h27.47.968,ImplicitInfinitySC-FASTTASK,2021.2.3,Win32,60.31726883,,,,space,0.2396,,,,,,,,,,j,1,1.1506,,0,8,8,79,1,Forks are alive,j,,,
,,,,,,,,4182,2022-04-06_20h27.47.968,ImplicitInfinitySC-FASTTASK,2021.2.3,Win32,60.31726883,,,,space,0.2894,,,,,,,,,,j,1,1.1906,,0,9,9,41,1,The number five is infinite,j,,,
,,,,,,,,4182,2022-04-06_20h27.47.968,ImplicitInfinitySC-FASTTASK,2021.2.3,Win32,60.31726883,,,,space,0.3417,,,,,,,,,,f,1,0.9559,,0,10,10,17,1,Time is infinite,f,,,
,,,,,,,,4182,2022-04-06_20h27.47.968,ImplicitInfinitySC-FASTTASK,2021.2.3,Win32,60.31726883,,,,space,0.6082,,,,,,,,,,f,0,0.973,,0,11,11,113,1,Magenta is a shape,j,,,
,,,,,,,,4182,2022-04-06_20h27.47.968,ImplicitInfinitySC-FASTTASK,2021.2.3,Win32,60.31726883,,,,space,0.2114,,,,,,,,,,j,1,2.1839,,0,12,12,87,1,Dreams have a molecular structure,j,,,
,,,,,,,,4182,2022-04-06_20h27.47.968,ImplicitInfinitySC-FASTTASK,2021.2.3,Win32,60.31726883,,,,space,0.2007,,,,,,,,,,j,1,1.7173,,0,13,13,112,1,Dinosaurs are not extinct,j,,,
,,,,,,,,4182,2022-04-06_20h27.47.968,ImplicitInfinitySC-FASTTASK,2021.2.3,Win32,60.31726883,,,,space,0.2855,,,,,,,,,,j,0,1.3177,,0,14,14,0,1,A minute is finite,f,,,
,,,,,,,,4182,2022-04-06_20h27.47.968,ImplicitInfinitySC-FASTTASK,2021.2.3,Win32,60.31726883,,,,space,0.2846,,,,,,,,,,f,0,1.1415,,0,15,15,84,1,Silence is composed of matter,j,,,
,,,,,,,,4182,2022-04-06_20h27.47.968,ImplicitInfinitySC-FASTTASK,2021.2.3,Win32,60.31726883,,,,space,0.2444,,,,,,,,,,f,1,1.7175,,0,16,16,23,1,Time can always be further divided,f,,,
,,,,,,,,4182,2022-04-06_20h27.47.968,ImplicitInfinitySC-FASTTASK,2021.2.3,Win32,60.31726883,,,,space,0.2336,,,,,,,,,,j,0,1.2346,,0,17,17,8,1,An inch is finite,f,,,
,,,,,,,,4182,2022-04-06_20h27.47.968,ImplicitInfinitySC-FASTTASK,2021.2.3,Win32,60.31726883,,,,space,0.2561,,,,,,,,,,f,1,1.5333,,0,18,18,37,1,Numbers can go on forever,f,,,
,,,,,,,,4182,2022-04-06_20h27.47.968,ImplicitInfinitySC-FASTTASK,2021.2.3,Win32,60.31726883,,,,space,0.3077,,,,,,,,,,f,1,1.0214,,0,19,19,35,1,Numbers are endless,f,,,
,,,,,,,,4182,2022-04-06_20h27.47.968,ImplicitInfinitySC-FASTTASK,2021.2.3,Win32,60.31726883,,,,space,0.2907,,,,,,,,,,j,1,1.4258,,0,20,20,67,1,Gravity has a molecular structure,j,,,
,,,,,,,,4182,2022-04-06_20h27.47.968,ImplicitInfinitySC-FASTTASK,2021.2.3,Win32,60.31726883,,,,space,0.3108,,,,,,,,,,f,1,1.1169,,0,21,21,55,1,Concrete is composed of matter,f,,,
,,,,,,,,4182,2022-04-06_20h27.47.968,ImplicitInfinitySC-FASTTASK,2021.2.3,Win32,60.31726883,,,,space,0.6685,,,,,,,,,,f,0,2.6892,,0,22,22,28,1,Space cannot go on forever,j,,,
,,,,,,,,4182,2022-04-06_20h27.47.968,ImplicitInfinitySC-FASTTASK,2021.2.3,Win32,60.31726883,,,,space,0.2921,,,,,,,,,,f,1,1.2543,,0,23,23,29,1,Space can go on forever,f,,,
,,,,,,,,4182,2022-04-06_20h27.47.968,ImplicitInfinitySC-FASTTASK,2021.2.3,Win32,60.31726883,,,,space,0.3085,,,,,,,,,,j,1,1.0672,,0,24,24,111,1,A circle is a flavor,j,,,
,,,,,,,,4182,2022-04-06_20h27.47.968,ImplicitInfinitySC-FASTTASK,2021.2.3,Win32,60.31726883,,,,space,0.2849,,,,,,,,,,f,1,0.9576,,0,25,25,102,1,The Earth is a planet,f,,,
,,,,,,,,4182,2022-04-06_20h27.47.968,ImplicitInfinitySC-FASTTASK,2021.2.3,Win32,60.31726883,,,,space,0.2445,,,,,,,,,,j,0,1.4603,,0,26,26,56,1,Diamonds have a molecular structure,f,,,
,,,,,,,,4182,2022-04-06_20h27.47.968,ImplicitInfinitySC-FASTTASK,2021.2.3,Win32,60.31726883,,,,space,0.2083,,,,,,,,,,j,1,1.1171,,0,27,27,78,1,Hammers are alive,j,,,
,,,,,,,,4182,2022-04-06_20h27.47.968,ImplicitInfinitySC-FASTTASK,2021.2.3,Win32,60.31726883,,,,space,0.2454,,,,,,,,,,f,0,1.9207,,0,28,28,36,1,Numbers cannot go on forever,j,,,
,,,,,,,,4182,2022-04-06_20h27.47.968,ImplicitInfinitySC-FASTTASK,2021.2.3,Win32,60.31726883,,,,space,0.2232,,,,,,,,,,j,1,1.5454,,0,29,29,80,1,Mittens need nutrients,j,,,
,,,,,,,,4182,2022-04-06_20h27.47.968,ImplicitInfinitySC-FASTTASK,2021.2.3,Win32,60.31726883,,,,space,0.2336,,,,,,,,,,f,1,1.1003,,0,30,30,27,1,Space is endless,f,,,
,,,,,,,,4182,2022-04-06_20h27.47.968,ImplicitInfinitySC-FASTTASK,2021.2.3,Win32,60.31726883,,,,space,0.2006,,,,,,,,,,j,1,1.3678,,0,31,31,83,1,Songs can be put in a container,j,,,
,,,,,,,,4182,2022-04-06_20h27.47.968,ImplicitInfinitySC-FASTTASK,2021.2.3,Win32,60.31726883,,,,space,0.1944,,,,,,,,,,j,1,2.0671,,0,32,32,6,1,A minute cannot always be further divided,j,,,
,,,,,,,,4182,2022-04-06_20h27.47.968,ImplicitInfinitySC-FASTTASK,2021.2.3,Win32,60.31726883,,,,space,0.2279,,,,,,,,,,j,1,1.0348,,0,33,33,123,1,Mississippi is a country,j,,,
,,,,,,,,4182,2022-04-06_20h27.47.968,ImplicitInfinitySC-FASTTASK,2021.2.3,Win32,60.31726883,,,,space,0.2444,,,,,,,,,,j,0,0.8465,,0,34,34,4,1,A minute cannot go on forever,f,,,
,,,,,,,,4182,2022-04-06_20h27.47.968,ImplicitInfinitySC-FASTTASK,2021.2.3,Win32,60.31726883,,,,space,0.5774,,,,,,,,,,j,0,0.751,,0,35,35,2,1,A minute has an end,f,,,
,,,,,,,,4182,2022-04-06_20h27.47.968,ImplicitInfinitySC-FASTTASK,2021.2.3,Win32,60.31726883,,,,space,0.2585,,,,,,,,,,j,1,1.0929,,0,36,36,61,1,Sailboats reproduce,j,,,
,,,,,,,,4182,2022-04-06_20h27.47.968,ImplicitInfinitySC-FASTTASK,2021.2.3,Win32,60.31726883,,,,space,0.2782,,,,,,,,,,j,0,1.0515,,0,37,37,69,1,Bacteria are alive,f,,,
,,,,,,,,4182,2022-04-06_20h27.47.968,ImplicitInfinitySC-FASTTASK,2021.2.3,Win32,60.31726883,,,,space,0.2007,,,,,,,,,,f,1,1.5839,,0,38,38,19,1,Time is endless,f,,,
,,,,,,,,4182,2022-04-06_20h27.47.968,ImplicitInfinitySC-FASTTASK,2021.2.3,Win32,60.31726883,,,,space,0.1849,,,,,,,,,,j,1,1.1266,,0,39,39,11,1,An inch is endless,j,,,
,,,,,,,,4182,2022-04-06_20h27.47.968,ImplicitInfinitySC-FASTTASK,2021.2.3,Win32,60.31726883,,,,space,0.9395,,,,,,,,,,j,1,0.875,space,0,40,40,1,1,A minute is infinite,j,0.5744,,
,,,,,,,,4182,2022-04-06_20h27.47.968,ImplicitInfinitySC-FASTTASK,2021.2.3,Win32,60.31726883,,,,space,0.2716,,,,,,,,,,j,0,1.2589,,0,41,41,31,1,Space can always be further divided,f,,,
,,,,,,,,4182,2022-04-06_20h27.47.968,ImplicitInfinitySC-FASTTASK,2021.2.3,Win32,60.31726883,,,,space,0.2174,,,,,,,,,,j,1,1.2845,,0,42,42,117,1,Dolphins cannot swim in the ocean,j,,,
,,,,,,,,4182,2022-04-06_20h27.47.968,ImplicitInfinitySC-FASTTASK,2021.2.3,Win32,60.31726883,,,,space,0.2337,,,,,,,,,,f,1,1.2681,,0,43,43,72,1,Mushrooms reproduce,f,,,
,,,,,,,,4182,2022-04-06_20h27.47.968,ImplicitInfinitySC-FASTTASK,2021.2.3,Win32,60.31726883,,,,space,0.2012,,,,,,,,,,j,1,1.3177,,0,44,44,18,1,Time has an end,j,,,
,,,,,,,,4182,2022-04-06_20h27.47.968,ImplicitInfinitySC-FASTTASK,2021.2.3,Win32,60.31726883,,,,space,0.5279,,,,,,,,,,j,0,1.7002,,0,45,45,51,1,Tigers reproduce,f,,,
,,,,,,,,4182,2022-04-06_20h27.47.968,ImplicitInfinitySC-FASTTASK,2021.2.3,Win32,60.31726883,,,,space,0.237,,,,,,,,,,j,0,1.3723,,0,46,46,7,1,A minute can always be further divided,f,,,
,,,,,,,,4182,2022-04-06_20h27.47.968,ImplicitInfinitySC-FASTTASK,2021.2.3,Win32,60.31726883,,,,space,0.2267,,,,,,,,,,f,1,1.3373,,0,47,47,96,1,Fish can swim in the ocean,f,,,
,,,,,,,,4182,2022-04-06_20h27.47.968,ImplicitInfinitySC-FASTTASK,2021.2.3,Win32,60.31726883,,,,space,0.1846,,,,,,,,,,f,1,0.8205,,0,48,48,104,1,The United States has a president,f,,,
,,,,,,,,4182,2022-04-06_20h27.47.968,ImplicitInfinitySC-FASTTASK,2021.2.3,Win32,60.31726883,,,,space,0.3061,,,,,,,,,,j,1,1.0405,,0,49,49,124,1,The president of the United States is Oprah,j,,,
,,,,,,,,4182,2022-04-06_20h27.47.968,ImplicitInfinitySC-FASTTASK,2021.2.3,Win32,60.31726883,,,,space,0.2684,,,,,,,,,,f,1,0.9664,,0,50,50,94,1,Orange is a color,f,,,
,,,,,,,,4182,2022-04-06_20h27.47.968,ImplicitInfinitySC-FASTTASK,2021.2.3,Win32,60.31726883,,,,space,0.2409,,,,,,,,,,f,1,0.9228,,0,51,51,98,1,A clock is used to tell time,f,,,
,,,,,,,,4182,2022-04-06_20h27.47.968,ImplicitInfinitySC-FASTTASK,2021.2.3,Win32,60.31726883,,,,space,0.2126,,,,,,,,,,f,1,1.4611,,0,52,52,53,1,Bricks can be put in a container,f,,,
,,,,,,,,4182,2022-04-06_20h27.47.968,ImplicitInfinitySC-FASTTASK,2021.2.3,Win32,60.31726883,,,,space,0.2246,,,,,,,,,,f,0,1.8174,,0,53,53,20,1,Time cannot go on forever,j,,,
,,,,,,,,4182,2022-04-06_20h27.47.968,ImplicitInfinitySC-FASTTASK,2021.2.3,Win32,60.31726883,,,,space,0.2849,,,,,,,,,,f,1,0.7511,,0,54,54,93,1,Magenta is a color,f,,,
,,,,,,,,4182,2022-04-06_20h27.47.968,ImplicitInfinitySC-FASTTASK,2021.2.3,Win32,60.31726883,,,,space,0.2509,,,,,,,,,,j,1,1.0793,,0,55,55,108,1,This sentence is written in Spanish,j,,,
,,,,,,,,4182,2022-04-06_20h27.47.968,ImplicitInfinitySC-FASTTASK,2021.2.3,Win32,60.31726883,,,,space,0.2357,,,,,,,,,,f,1,0.9846,,0,56,56,48,1,Crocodiles are alive,f,,,
,,,,,,,,4182,2022-04-06_20h27.47.968,ImplicitInfinitySC-FASTTASK,2021.2.3,Win32,60.31726883,,,,space,0.2043,,,,,,,,,,j,1,0.8584,,0,57,57,43,1,The number five is endless,j,,,
,,,,,,,,4182,2022-04-06_20h27.47.968,ImplicitInfinitySC-FASTTASK,2021.2.3,Win32,60.31726883,,,,space,0.2927,,,,,,,,,,j,1,1.9513,,0,58,58,38,1,Numbers cannot always be further divided,j,,,
,,,,,,,,4182,2022-04-06_20h27.47.968,ImplicitInfinitySC-FASTTASK,2021.2.3,Win32,60.31726883,,,,space,0.2185,,,,,,,,,,f,1,1.2354,,0,59,59,107,1,A pencil is used to write,f,,,
,,,,,,,,4182,2022-04-06_20h27.47.968,ImplicitInfinitySC-FASTTASK,2021.2.3,Win32,60.31726883,,,,space,0.2282,,,,,,,,,,j,0,1.2755,,0,60,60,15,1,An inch can be always further divided,f,,,
,,,,,,,,4182,2022-04-06_20h27.47.968,ImplicitInfinitySC-FASTTASK,2021.2.3,Win32,60.31726883,,,,space,0.2846,,,,,,,,,,j,0,0.9011,,0,61,61,50,1,Turtles need nutrients,f,,,
,,,,,,,,4182,2022-04-06_20h27.47.968,ImplicitInfinitySC-FASTTASK,2021.2.3,Win32,60.31726883,,,,space,1.2238,,,,,,,,,,j,1,1.3096,,0,62,62,121,1,Jupiter is the planet we live on,j,,,
,,,,,,,,4182,2022-04-06_20h27.47.968,ImplicitInfinitySC-FASTTASK,2021.2.3,Win32,60.31726883,,,,space,0.2594,,,,,,,,,,j,0,1.2337,,0,63,63,75,1,Frost is composed of matter,f,,,
,,,,,,,,4182,2022-04-06_20h27.47.968,ImplicitInfinitySC-FASTTASK,2021.2.3,Win32,60.31726883,,,,space,0.1833,,,,,,,,,,j,1,1.1839,,0,64,64,46,1,The number five cannot always be further divided,j,,,
,,,,,,,,4182,2022-04-06_20h27.47.968,ImplicitInfinitySC-FASTTASK,2021.2.3,Win32,60.31726883,,,,space,0.325,,,,,,,,,,f,0,1.2681,,0,65,65,125,1,There are ninty states in the United States,j,,,
,,,,,,,,4182,2022-04-06_20h27.47.968,ImplicitInfinitySC-FASTTASK,2021.2.3,Win32,60.31726883,,,,space,0.2103,,,,,,,,,,j,1,1.1177,,0,66,66,5,1,A minute can go on forever,j,,,
,,,,,,,,4182,2022-04-06_20h27.47.968,ImplicitInfinitySC-FASTTASK,2021.2.3,Win32,60.31726883,,,,space,0.2093,,,,,,,,,,j,1,1.5243,,0,67,67,30,1,Space cannot always be further divided,j,,,
,,,,,,,,4182,2022-04-06_20h27.47.968,ImplicitInfinitySC-FASTTASK,2021.2.3,Win32,60.31726883,,,,space,0.1717,,,,,,,,,,j,1,1.3059,,0,68,68,13,1,An inch can go on forever,j,,,
,,,,,,,,4182,2022-04-06_20h27.47.968,ImplicitInfinitySC-FASTTASK,2021.2.3,Win32,60.31726883,,,,space,0.2055,,,,,,,,,,f,1,0.818,,0,69,69,103,1,The United States is a country,f,,,
,,,,,,,,4182,2022-04-06_20h27.47.968,ImplicitInfinitySC-FASTTASK,2021.2.3,Win32,60.31726883,,,,space,0.2347,,,,,,,,,,j,1,1.2678,,0,70,70,64,1,Echoes are composed of matter,j,,,
,,,,,,,,4182,2022-04-06_20h27.47.968,ImplicitInfinitySC-FASTTASK,2021.2.3,Win32,60.31726883,,,,space,0.25,,,,,,,,,,f,1,1.0061,,0,71,71,57,1,Rocks have a molecular structure,f,,,
,,,,,,,,4182,2022-04-06_20h27.47.968,ImplicitInfinitySC-FASTTASK,2021.2.3,Win32,60.31726883,,,,space,0.2239,,,,,,,,,,f,1,1.4515,,0,72,72,70,1,Grass needs nutrients,f,,,
,,,,,,,,4182,2022-04-06_20h27.47.968,ImplicitInfinitySC-FASTTASK,2021.2.3,Win32,60.31726883,,,,space,0.2351,,,,,,,,,,j,1,1.2601,,0,73,73,34,1,Numbers have an end,j,,,
,,,,,,,,4182,2022-04-06_20h27.47.968,ImplicitInfinitySC-FASTTASK,2021.2.3,Win32,60.31726883,,,,space,0.2049,,,,,,,,,,j,1,1.3339,,0,74,74,26,1,Space has an end,j,,,
,,,,,,,,4182,2022-04-06_20h27.47.968,ImplicitInfinitySC-FASTTASK,2021.2.3,Win32,60.31726883,,,,space,0.3018,,,,,,,,,,j,0,0.9839,,0,75,75,47,1,The number five can always be further divided,f,,,
,,,,,,,,4182,2022-04-06_20h27.47.968,ImplicitInfinitySC-FASTTASK,2021.2.3,Win32,60.31726883,,,,space,0.2798,,,,,,,,,,j,1,1.6036,,0,76,76,119,1,A motorcycle is a person,j,,,
,,,,,,,,4182,2022-04-06_20h27.47.968,ImplicitInfinitySC-FASTTASK,2021.2.3,Win32,60.31726883,,,,space,0.2217,,,,,,,,,,j,1,0.9333,,0,77,77,110,1,A triangle is an animal,j,,,
,,,,,,,,4182,2022-04-06_20h27.47.968,ImplicitInfinitySC-FASTTASK,2021.2.3,Win32,60.31726883,,,,space,0.2516,,,,,,,,,,j,1,1.2844,,0,78,78,122,1,The Earth is a star,j,,,
,,,,,,,,4182,2022-04-06_20h27.47.968,ImplicitInfinitySC-FASTTASK,2021.2.3,Win32,60.31726883,,,,space,0.2054,,,,,,,,,,j,1,1.4495,,0,79,79,82,1,Stones reproduce,j,,,
,,,,,,,,4182,2022-04-06_20h27.47.968,ImplicitInfinitySC-FASTTASK,2021.2.3,Win32,60.31726883,,,,space,0.2186,,,,,,,,,,j,1,1.274,,0,80,80,66,1,Music has a molecular structure,j,,,
,,,,,,,,4182,2022-04-06_20h27.47.968,ImplicitInfinitySC-FASTTASK,2021.2.3,Win32,60.31726883,,,,,,,,,,,,,,,,,,,,,,,,,,,space,12.7705
