INSTRESP.keys,INSTRESP.rt,Instrloop.thisRepN,Instrloop.thisTrialN,Instrloop.thisN,Instrloop.thisIndex,Instrloop.ran,FastInstructions,participant,date,expName,psychopyVersion,OS,frameRate,key_resp_2.keys,key_resp_2.corr,key_resp_2.rt,Advance_Resp.keys,Advance_Resp.rt,Practice.thisRepN,Practice.thisTrialN,Practice.thisN,Practice.thisIndex,Practice.ran,practicetext,practicecorrect,key_resp_3.keys,key_resp.keys,key_resp.corr,key_resp.rt,encouragekey.keys,FastLoop.thisRepN,FastLoop.thisTrialN,FastLoop.thisN,FastLoop.thisIndex,FastLoop.ran,Statement,Correct,encouragekey.rt,endstudykey.keys
space,13.5849,0,0,0,0,1,"You will be shown a total of 80 statements pertaining to mathematics, science, and social concepts. Your task is to determine whether each statement is true or false as quickly as possible without sacrificing accuracy. Some statements will be difficult and some will be easier.  We do not expect you to know the correct answer for all 80 statements.  Press SPACE to Continue",4227,2022-04-06_16h09.55.722,ImplicitInfinitySC-FASTTASK,2021.2.3,Win32,58.51717479,,,,,,,,,,,,,,,,,,,,,,,,,,
space,16.4385,0,1,1,1,1,"Each statement will appear on your screen for up to 4 seconds and you will have those 4 seconds to decide if it is true or false before the next statement appears. There will be a beep to inform you that you have 2.5 seconds remaining. Please make sure the sound on your computer is turned on. If you do not respond, that answer will be considered incorrect and the task will move on to the next statement. Press SPACE to continue",4227,2022-04-06_16h09.55.722,ImplicitInfinitySC-FASTTASK,2021.2.3,Win32,58.51717479,,,,,,,,,,,,,,,,,,,,,,,,,,
space,16.0847,0,2,2,2,1,"If the statement is true, you will press the “F” key on your keyboard with your left pointer finger; if the statement is false, you will press the “J” key on your keyboard with your right pointer finger. Press SPACE to continue",4227,2022-04-06_16h09.55.722,ImplicitInfinitySC-FASTTASK,2021.2.3,Win32,58.51717479,,,,,,,,,,,,,,,,,,,,,,,,,,
space,7.239,0,3,3,3,1,"Prior to completing the study, you will complete 10 practice trials to familiarize yourself with the task. Your performance on these trials will determine your participation in the following study. Press SPACE to continue.",4227,2022-04-06_16h09.55.722,ImplicitInfinitySC-FASTTASK,2021.2.3,Win32,58.51717479,,,,,,,,,,,,,,,,,,,,,,,,,,
space,5.2094,0,4,4,4,1,"If the statement is true, press the “F” key on your keyboard with your left pointer finger; if the statement is false, press the “J” key on your keyboard with your right pointer finger. Press SPACE to continue",4227,2022-04-06_16h09.55.722,ImplicitInfinitySC-FASTTASK,2021.2.3,Win32,58.51717479,,,,,,,,,,,,,,,,,,,,,,,,,,
,,,,,,,,4227,2022-04-06_16h09.55.722,ImplicitInfinitySC-FASTTASK,2021.2.3,Win32,58.51717479,f,1,1.2983,space,1.1005,0,0,0,1,1,Dinosaurs are extinct,f,,,,,,,,,,,,,,
,,,,,,,,4227,2022-04-06_16h09.55.722,ImplicitInfinitySC-FASTTASK,2021.2.3,Win32,58.51717479,f,1,1.217,space,1.1345,0,1,1,3,1,A clock is used to tell time,f,,,,,,,,,,,,,,
,,,,,,,,4227,2022-04-06_16h09.55.722,ImplicitInfinitySC-FASTTASK,2021.2.3,Win32,58.51717479,j,1,1.1671,space,1.1018,0,2,2,5,1,A truck is an animal,j,,,,,,,,,,,,,,
,,,,,,,,4227,2022-04-06_16h09.55.722,ImplicitInfinitySC-FASTTASK,2021.2.3,Win32,58.51717479,j,1,1.2843,space,1.0014,0,3,3,6,1,Jupiter is the planet we live on,j,,,,,,,,,,,,,,
,,,,,,,,4227,2022-04-06_16h09.55.722,ImplicitInfinitySC-FASTTASK,2021.2.3,Win32,58.51717479,j,1,1.4053,space,1.3675,0,4,4,7,1,The Earth is a star,j,,,,,,,,,,,,,,
,,,,,,,,4227,2022-04-06_16h09.55.722,ImplicitInfinitySC-FASTTASK,2021.2.3,Win32,58.51717479,j,1,1.7868,space,9.3058,0,5,5,8,1,Mississippi is a country,j,,,,,,,,,,,,,,
,,,,,,,,4227,2022-04-06_16h09.55.722,ImplicitInfinitySC-FASTTASK,2021.2.3,Win32,58.51717479,f,1,1.3156,space,0.8839,0,6,6,2,1,Magenta is a color,f,,,,,,,,,,,,,,
,,,,,,,,4227,2022-04-06_16h09.55.722,ImplicitInfinitySC-FASTTASK,2021.2.3,Win32,58.51717479,f,1,1.7845,space,1.6175,0,7,7,4,1,Humans cannot breathe water,f,,,,,,,,,,,,,,
,,,,,,,,4227,2022-04-06_16h09.55.722,ImplicitInfinitySC-FASTTASK,2021.2.3,Win32,58.51717479,j,1,1.0729,space,0.8554,0,8,8,9,1,Humans cannot eat food,j,,,,,,,,,,,,,,
,,,,,,,,4227,2022-04-06_16h09.55.722,ImplicitInfinitySC-FASTTASK,2021.2.3,Win32,58.51717479,f,1,1.1777,space,1.1451,0,9,9,0,1,A circle is a shape,f,,,,,,,,,,,,,,
,,,,,,,,4227,2022-04-06_16h09.55.722,ImplicitInfinitySC-FASTTASK,2021.2.3,Win32,58.51717479,,,,space,0.801,,,,,,,,,j,1,1.085,,0,0,0,58,1,Clocks are alive,j,,
,,,,,,,,4227,2022-04-06_16h09.55.722,ImplicitInfinitySC-FASTTASK,2021.2.3,Win32,58.51717479,,,,space,1.8511,,,,,,,,,j,1,1.6614,,0,1,1,125,1,There are ninty states in the United States,j,,
,,,,,,,,4227,2022-04-06_16h09.55.722,ImplicitInfinitySC-FASTTASK,2021.2.3,Win32,58.51717479,,,,space,1.1838,,,,,,,,,j,1,1.1173,,0,2,2,112,1,Dinosaurs are not extinct,j,,
,,,,,,,,4227,2022-04-06_16h09.55.722,ImplicitInfinitySC-FASTTASK,2021.2.3,Win32,58.51717479,,,,space,1,,,,,,,,,j,0,1.6874,,0,3,3,40,1,The number five is finite,f,,
,,,,,,,,4227,2022-04-06_16h09.55.722,ImplicitInfinitySC-FASTTASK,2021.2.3,Win32,58.51717479,,,,space,1.0759,,,,,,,,,f,1,1.1189,,0,4,4,42,1,The number five has an end,f,,
,,,,,,,,4227,2022-04-06_16h09.55.722,ImplicitInfinitySC-FASTTASK,2021.2.3,Win32,58.51717479,,,,space,1.0184,,,,,,,,,j,1,1.4098,,0,5,5,9,1,An inch is infinite,j,,
,,,,,,,,4227,2022-04-06_16h09.55.722,ImplicitInfinitySC-FASTTASK,2021.2.3,Win32,58.51717479,,,,space,1.2926,,,,,,,,,f,1,1.5394,,0,6,6,74,1,Foam is composed of matter,f,,
,,,,,,,,4227,2022-04-06_16h09.55.722,ImplicitInfinitySC-FASTTASK,2021.2.3,Win32,58.51717479,,,,space,0.8501,,,,,,,,,j,1,0.9106,,0,7,7,121,1,Jupiter is the planet we live on,j,,
,,,,,,,,4227,2022-04-06_16h09.55.722,ImplicitInfinitySC-FASTTASK,2021.2.3,Win32,58.51717479,,,,space,0.7733,,,,,,,,,f,1,0.8075,,0,8,8,89,1,A square is a shape,f,,
,,,,,,,,4227,2022-04-06_16h09.55.722,ImplicitInfinitySC-FASTTASK,2021.2.3,Win32,58.51717479,,,,space,1.1613,,,,,,,,,f,1,1.4176,,0,9,9,53,1,Bricks can be put in a container,f,,
,,,,,,,,4227,2022-04-06_16h09.55.722,ImplicitInfinitySC-FASTTASK,2021.2.3,Win32,58.51717479,,,,space,0.9256,,,,,,,,,j,1,1.1424,,0,10,10,45,1,The number five can go on forever,j,,
,,,,,,,,4227,2022-04-06_16h09.55.722,ImplicitInfinitySC-FASTTASK,2021.2.3,Win32,58.51717479,,,,space,0.9341,,,,,,,,,j,1,2.777,,0,11,11,28,1,Space cannot go on forever,j,,
,,,,,,,,4227,2022-04-06_16h09.55.722,ImplicitInfinitySC-FASTTASK,2021.2.3,Win32,58.51717479,,,,space,1.022,,,,,,,,,j,1,1.2872,,0,12,12,126,1,Humans can breathe water,j,,
,,,,,,,,4227,2022-04-06_16h09.55.722,ImplicitInfinitySC-FASTTASK,2021.2.3,Win32,58.51717479,,,,space,0.8406,,,,,,,,,f,1,1.2109,,0,13,13,96,1,Fish can swim in the ocean,f,,
,,,,,,,,4227,2022-04-06_16h09.55.722,ImplicitInfinitySC-FASTTASK,2021.2.3,Win32,58.51717479,,,,space,1.3859,,,,,,,,,j,0,1.5586,,0,14,14,71,1,Oaks reproduce,f,,
,,,,,,,,4227,2022-04-06_16h09.55.722,ImplicitInfinitySC-FASTTASK,2021.2.3,Win32,58.51717479,,,,space,0.8342,,,,,,,,,j,1,1.2024,,0,15,15,116,1,Fish cannot swim in the ocean,j,,
,,,,,,,,4227,2022-04-06_16h09.55.722,ImplicitInfinitySC-FASTTASK,2021.2.3,Win32,58.51717479,,,,space,1.6753,,,,,,,,,f,1,1.7415,,0,16,16,23,1,Time can always be further divided,f,,
,,,,,,,,4227,2022-04-06_16h09.55.722,ImplicitInfinitySC-FASTTASK,2021.2.3,Win32,58.51717479,,,,space,1.5256,,,,,,,,,j,1,1.0227,,0,17,17,61,1,Sailboats reproduce,j,,
,,,,,,,,4227,2022-04-06_16h09.55.722,ImplicitInfinitySC-FASTTASK,2021.2.3,Win32,58.51717479,,,,space,0.7674,,,,,,,,,f,1,0.9008,,0,18,18,97,1,Dolphins can swim in the ocean,f,,
,,,,,,,,4227,2022-04-06_16h09.55.722,ImplicitInfinitySC-FASTTASK,2021.2.3,Win32,58.51717479,,,,space,0.807,,,,,,,,,f,1,1.3339,,0,19,19,75,1,Frost is composed of matter,f,,
,,,,,,,,4227,2022-04-06_16h09.55.722,ImplicitInfinitySC-FASTTASK,2021.2.3,Win32,58.51717479,,,,space,0.877,,,,,,,,,j,1,1.4112,,0,20,20,63,1,Color can be put in a container,j,,
,,,,,,,,4227,2022-04-06_16h09.55.722,ImplicitInfinitySC-FASTTASK,2021.2.3,Win32,58.51717479,,,,space,1.8864,,,,,,,,,j,1,1.517,,0,21,21,18,1,Time has an end,j,,
,,,,,,,,4227,2022-04-06_16h09.55.722,ImplicitInfinitySC-FASTTASK,2021.2.3,Win32,58.51717479,,,,space,1.2708,,,,,,,,,j,1,1.5175,,0,22,22,38,1,Numbers cannot always be further divided,j,,
,,,,,,,,4227,2022-04-06_16h09.55.722,ImplicitInfinitySC-FASTTASK,2021.2.3,Win32,58.51717479,,,,space,0.657,,,,,,,,,j,1,1.2752,,0,23,23,117,1,Dolphins cannot swim in the ocean,j,,
,,,,,,,,4227,2022-04-06_16h09.55.722,ImplicitInfinitySC-FASTTASK,2021.2.3,Win32,58.51717479,,,,space,1.3058,,,,,,,,,f,1,1.8173,,0,24,24,12,1,An inch cannot go on forever,f,,
,,,,,,,,4227,2022-04-06_16h09.55.722,ImplicitInfinitySC-FASTTASK,2021.2.3,Win32,58.51717479,,,,space,0.9042,,,,,,,,,f,1,1.3183,,0,25,25,57,1,Rocks have a molecular structure,f,,
,,,,,,,,4227,2022-04-06_16h09.55.722,ImplicitInfinitySC-FASTTASK,2021.2.3,Win32,58.51717479,,,,space,0.694,,,,,,,,,j,1,0.9052,,0,26,26,62,1,Helicopters reproduce,j,,
,,,,,,,,4227,2022-04-06_16h09.55.722,ImplicitInfinitySC-FASTTASK,2021.2.3,Win32,58.51717479,,,,space,0.9276,,,,,,,,,f,1,1.1218,,0,27,27,27,1,Space is endless,f,,
,,,,,,,,4227,2022-04-06_16h09.55.722,ImplicitInfinitySC-FASTTASK,2021.2.3,Win32,58.51717479,,,,space,0.9591,,,,,,,,,j,1,1.0071,,0,28,28,13,1,An inch can go on forever,j,,
,,,,,,,,4227,2022-04-06_16h09.55.722,ImplicitInfinitySC-FASTTASK,2021.2.3,Win32,58.51717479,,,,space,1.6181,,,,,,,,,j,1,1.6005,,0,29,29,1,1,A minute is infinite,j,,
,,,,,,,,4227,2022-04-06_16h09.55.722,ImplicitInfinitySC-FASTTASK,2021.2.3,Win32,58.51717479,,,,space,1.1201,,,,,,,,,f,1,1.7222,,0,30,30,73,1,Bubbles can be put in a container,f,,
,,,,,,,,4227,2022-04-06_16h09.55.722,ImplicitInfinitySC-FASTTASK,2021.2.3,Win32,58.51717479,,,,space,0.7402,,,,,,,,,f,1,0.8173,,0,31,31,93,1,Magenta is a color,f,,
,,,,,,,,4227,2022-04-06_16h09.55.722,ImplicitInfinitySC-FASTTASK,2021.2.3,Win32,58.51717479,,,,space,1.0404,,,,,,,,,f,1,1.5065,,0,32,32,4,1,A minute cannot go on forever,f,,
,,,,,,,,4227,2022-04-06_16h09.55.722,ImplicitInfinitySC-FASTTASK,2021.2.3,Win32,58.51717479,,,,space,0.8107,,,,,,,,,j,1,1.1181,,0,33,33,79,1,Forks are alive,j,,
,,,,,,,,4227,2022-04-06_16h09.55.722,ImplicitInfinitySC-FASTTASK,2021.2.3,Win32,58.51717479,,,,space,1.2173,,,,,,,,,f,1,0.9339,,0,34,34,102,1,The Earth is a planet,f,,
,,,,,,,,4227,2022-04-06_16h09.55.722,ImplicitInfinitySC-FASTTASK,2021.2.3,Win32,58.51717479,,,,space,0.8337,,,,,,,,,j,1,1.0007,,0,35,35,111,1,A circle is a flavor,j,,
,,,,,,,,4227,2022-04-06_16h09.55.722,ImplicitInfinitySC-FASTTASK,2021.2.3,Win32,58.51717479,,,,space,1.0526,,,,,,,,,f,1,0.8033,,0,36,36,95,1,Yellow is a color,f,,
,,,,,,,,4227,2022-04-06_16h09.55.722,ImplicitInfinitySC-FASTTASK,2021.2.3,Win32,58.51717479,,,,space,0.9512,,,,,,,,,j,1,0.9838,,0,37,37,3,1,A minute is endless,j,,
,,,,,,,,4227,2022-04-06_16h09.55.722,ImplicitInfinitySC-FASTTASK,2021.2.3,Win32,58.51717479,,,,space,0.8842,,,,,,,,,f,1,0.8374,,0,38,38,2,1,A minute has an end,f,,
,,,,,,,,4227,2022-04-06_16h09.55.722,ImplicitInfinitySC-FASTTASK,2021.2.3,Win32,58.51717479,,,,space,0.993,,,,,,,,,f,1,1.3891,,0,39,39,31,1,Space can always be further divided,f,,
,,,,,,,,4227,2022-04-06_16h09.55.722,ImplicitInfinitySC-FASTTASK,2021.2.3,Win32,58.51717479,,,,space,1.4229,,,,,,,,,f,1,1.0091,space,0,40,40,29,1,Space can go on forever,f,3.9328,
,,,,,,,,4227,2022-04-06_16h09.55.722,ImplicitInfinitySC-FASTTASK,2021.2.3,Win32,58.51717479,,,,space,0.9008,,,,,,,,,j,1,0.8515,,0,41,41,122,1,The Earth is a star,j,,
,,,,,,,,4227,2022-04-06_16h09.55.722,ImplicitInfinitySC-FASTTASK,2021.2.3,Win32,58.51717479,,,,space,0.7942,,,,,,,,,f,1,1.2339,,0,42,42,76,1,Pollen has a molecular structure,f,,
,,,,,,,,4227,2022-04-06_16h09.55.722,ImplicitInfinitySC-FASTTASK,2021.2.3,Win32,58.51717479,,,,space,1.1553,,,,,,,,,j,1,1.2373,,0,43,43,108,1,This sentence is written in Spanish,j,,
,,,,,,,,4227,2022-04-06_16h09.55.722,ImplicitInfinitySC-FASTTASK,2021.2.3,Win32,58.51717479,,,,space,1.287,,,,,,,,,f,1,1.5715,,0,44,44,35,1,Numbers are endless,f,,
,,,,,,,,4227,2022-04-06_16h09.55.722,ImplicitInfinitySC-FASTTASK,2021.2.3,Win32,58.51717479,,,,space,0.7511,,,,,,,,,j,1,0.8672,,0,45,45,110,1,A triangle is an animal,j,,
,,,,,,,,4227,2022-04-06_16h09.55.722,ImplicitInfinitySC-FASTTASK,2021.2.3,Win32,58.51717479,,,,space,0.8693,,,,,,,,,f,1,0.97,,0,46,46,105,1,There are fifty states in the United States,f,,
,,,,,,,,4227,2022-04-06_16h09.55.722,ImplicitInfinitySC-FASTTASK,2021.2.3,Win32,58.51717479,,,,space,0.9722,,,,,,,,,j,1,1.3017,,0,47,47,66,1,Music has a molecular structure,j,,
,,,,,,,,4227,2022-04-06_16h09.55.722,ImplicitInfinitySC-FASTTASK,2021.2.3,Win32,58.51717479,,,,space,0.7341,,,,,,,,,f,1,1.0679,,0,48,48,77,1,Saliva has a molecular structure,f,,
,,,,,,,,4227,2022-04-06_16h09.55.722,ImplicitInfinitySC-FASTTASK,2021.2.3,Win32,58.51717479,,,,space,0.7426,,,,,,,,,f,1,1.0263,,0,49,49,72,1,Mushrooms reproduce,f,,
,,,,,,,,4227,2022-04-06_16h09.55.722,ImplicitInfinitySC-FASTTASK,2021.2.3,Win32,58.51717479,,,,space,0.9442,,,,,,,,,f,1,0.8383,,0,50,50,68,1,Algae is alive,f,,
,,,,,,,,4227,2022-04-06_16h09.55.722,ImplicitInfinitySC-FASTTASK,2021.2.3,Win32,58.51717479,,,,space,0.9336,,,,,,,,,f,1,1.2502,,0,51,51,7,1,A minute can always be further divided,f,,
,,,,,,,,4227,2022-04-06_16h09.55.722,ImplicitInfinitySC-FASTTASK,2021.2.3,Win32,58.51717479,,,,space,0.6683,,,,,,,,,f,1,1.1584,,0,52,52,107,1,A pencil is used to write,f,,
,,,,,,,,4227,2022-04-06_16h09.55.722,ImplicitInfinitySC-FASTTASK,2021.2.3,Win32,58.51717479,,,,space,0.9841,,,,,,,,,j,1,0.9556,,0,53,53,5,1,A minute can go on forever,j,,
,,,,,,,,4227,2022-04-06_16h09.55.722,ImplicitInfinitySC-FASTTASK,2021.2.3,Win32,58.51717479,,,,space,1.0566,,,,,,,,,f,1,1.0077,,0,54,54,103,1,The United States is a country,f,,
,,,,,,,,4227,2022-04-06_16h09.55.722,ImplicitInfinitySC-FASTTASK,2021.2.3,Win32,58.51717479,,,,space,0.7838,,,,,,,,,j,1,0.8587,,0,55,55,113,1,Magenta is a shape,j,,
,,,,,,,,4227,2022-04-06_16h09.55.722,ImplicitInfinitySC-FASTTASK,2021.2.3,Win32,58.51717479,,,,space,1.2021,,,,,,,,,f,0,1.0673,,0,56,56,24,1,Space is finite,j,,
,,,,,,,,4227,2022-04-06_16h09.55.722,ImplicitInfinitySC-FASTTASK,2021.2.3,Win32,58.51717479,,,,space,0.7519,,,,,,,,,j,1,1.125,,0,57,57,114,1,Lightbulbs are made of clay,j,,
,,,,,,,,4227,2022-04-06_16h09.55.722,ImplicitInfinitySC-FASTTASK,2021.2.3,Win32,58.51717479,,,,space,0.6882,,,,,,,,,f,1,1.1035,,0,58,58,70,1,Grass needs nutrients,f,,
,,,,,,,,4227,2022-04-06_16h09.55.722,ImplicitInfinitySC-FASTTASK,2021.2.3,Win32,58.51717479,,,,space,0.9098,,,,,,,,,j,1,1.0503,,0,59,59,80,1,Mittens need nutrients,j,,
,,,,,,,,4227,2022-04-06_16h09.55.722,ImplicitInfinitySC-FASTTASK,2021.2.3,Win32,58.51717479,,,,space,1.2367,,,,,,,,,j,1,1.4668,,0,60,60,64,1,Echoes are composed of matter,j,,
,,,,,,,,4227,2022-04-06_16h09.55.722,ImplicitInfinitySC-FASTTASK,2021.2.3,Win32,58.51717479,,,,space,0.9273,,,,,,,,,f,1,0.7569,,0,61,61,91,1,A circle is a shape,f,,
,,,,,,,,4227,2022-04-06_16h09.55.722,ImplicitInfinitySC-FASTTASK,2021.2.3,Win32,58.51717479,,,,space,0.7835,,,,,,,,,f,1,1.07,,0,62,62,88,1,This sentence is written in English,f,,
,,,,,,,,4227,2022-04-06_16h09.55.722,ImplicitInfinitySC-FASTTASK,2021.2.3,Win32,58.51717479,,,,space,1.0268,,,,,,,,,f,1,1.339,,0,63,63,37,1,Numbers can go on forever,f,,
,,,,,,,,4227,2022-04-06_16h09.55.722,ImplicitInfinitySC-FASTTASK,2021.2.3,Win32,58.51717479,,,,space,0.8578,,,,,,,,,f,1,1.0681,,0,64,64,19,1,Time is endless,f,,
,,,,,,,,4227,2022-04-06_16h09.55.722,ImplicitInfinitySC-FASTTASK,2021.2.3,Win32,58.51717479,,,,space,0.7235,,,,,,,,,j,1,0.8051,,0,65,65,120,1,A truck is an animal,j,,
,,,,,,,,4227,2022-04-06_16h09.55.722,ImplicitInfinitySC-FASTTASK,2021.2.3,Win32,58.51717479,,,,space,0.6938,,,,,,,,,j,1,1.1844,,0,66,66,65,1,Shadows are composed of matter,j,,
,,,,,,,,4227,2022-04-06_16h09.55.722,ImplicitInfinitySC-FASTTASK,2021.2.3,Win32,58.51717479,,,,space,0.8595,,,,,,,,,f,1,1.0009,,0,67,67,104,1,The United States has a president,f,,
,,,,,,,,4227,2022-04-06_16h09.55.722,ImplicitInfinitySC-FASTTASK,2021.2.3,Win32,58.51717479,,,,space,0.7176,,,,,,,,,j,1,1.0182,,0,68,68,11,1,An inch is endless,j,,
,,,,,,,,4227,2022-04-06_16h09.55.722,ImplicitInfinitySC-FASTTASK,2021.2.3,Win32,58.51717479,,,,space,0.605,,,,,,,,,f,1,0.9689,,0,69,69,98,1,A clock is used to tell time,f,,
,,,,,,,,4227,2022-04-06_16h09.55.722,ImplicitInfinitySC-FASTTASK,2021.2.3,Win32,58.51717479,,,,space,1.3677,,,,,,,,,j,1,1.8343,,0,70,70,22,1,Time cannot always be further divided,j,,
,,,,,,,,4227,2022-04-06_16h09.55.722,ImplicitInfinitySC-FASTTASK,2021.2.3,Win32,58.51717479,,,,space,0.6231,,,,,,,,,f,1,0.8871,,0,71,71,94,1,Orange is a color,f,,
,,,,,,,,4227,2022-04-06_16h09.55.722,ImplicitInfinitySC-FASTTASK,2021.2.3,Win32,58.51717479,,,,space,0.9009,,,,,,,,,j,1,1.7839,,0,72,72,32,1,Numbers are finite,j,,
,,,,,,,,4227,2022-04-06_16h09.55.722,ImplicitInfinitySC-FASTTASK,2021.2.3,Win32,58.51717479,,,,space,1.585,,,,,,,,,j,1,2.0054,,0,73,73,36,1,Numbers cannot go on forever,j,,
,,,,,,,,4227,2022-04-06_16h09.55.722,ImplicitInfinitySC-FASTTASK,2021.2.3,Win32,58.51717479,,,,space,0.941,,,,,,,,,f,1,1.8002,,0,74,74,44,1,The number five cannot go on forever,f,,
,,,,,,,,4227,2022-04-06_16h09.55.722,ImplicitInfinitySC-FASTTASK,2021.2.3,Win32,58.51717479,,,,space,0.8176,,,,,,,,,j,1,1.5504,,0,75,75,14,1,An inch cannot always be further divided,j,,
,,,,,,,,4227,2022-04-06_16h09.55.722,ImplicitInfinitySC-FASTTASK,2021.2.3,Win32,58.51717479,,,,space,0.8176,,,,,,,,,f,0,0.9875,,0,76,76,34,1,Numbers have an end,j,,
,,,,,,,,4227,2022-04-06_16h09.55.722,ImplicitInfinitySC-FASTTASK,2021.2.3,Win32,58.51717479,,,,space,0.9011,,,,,,,,,j,1,0.9856,,0,77,77,43,1,The number five is endless,j,,
,,,,,,,,4227,2022-04-06_16h09.55.722,ImplicitInfinitySC-FASTTASK,2021.2.3,Win32,58.51717479,,,,space,0.8578,,,,,,,,,f,0,1.0579,,0,78,78,59,1,Comets are alive,j,,
,,,,,,,,4227,2022-04-06_16h09.55.722,ImplicitInfinitySC-FASTTASK,2021.2.3,Win32,58.51717479,,,,space,1.1839,,,,,,,,,j,1,1.3231,,0,79,79,16,1,Time is finite,j,,
,,,,,,,,4227,2022-04-06_16h09.55.722,ImplicitInfinitySC-FASTTASK,2021.2.3,Win32,58.51717479,,,,space,1.2374,,,,,,,,,f,1,0.825,,0,80,80,17,1,Time is infinite,f,,
,,,,,,,,4227,2022-04-06_16h09.55.722,ImplicitInfinitySC-FASTTASK,2021.2.3,Win32,58.51717479,,,,,,,,,,,,,,,,,,,,,,,,,,
