INSTRESP.keys,INSTRESP.rt,Instrloop.thisRepN,Instrloop.thisTrialN,Instrloop.thisN,Instrloop.thisIndex,Instrloop.ran,FastInstructions,participant,date,expName,psychopyVersion,OS,frameRate,key_resp_2.keys,key_resp_2.corr,key_resp_2.rt,Advance_Resp.keys,Advance_Resp.rt,Practice.thisRepN,Practice.thisTrialN,Practice.thisN,Practice.thisIndex,Practice.ran,practicetext,practicecorrect,key_resp_3.keys,key_resp_3.rt,key_resp.keys,key_resp.corr,key_resp.rt,encouragekey.keys,FastLoop.thisRepN,FastLoop.thisTrialN,FastLoop.thisN,FastLoop.thisIndex,FastLoop.ran,Statement,Correct,endstudykey.keys,endstudykey.rt
space,5.693,0,0,0,0,1,"You will be shown a total of 80 statements pertaining to mathematics, science, and social concepts. Your task is to determine whether each statement is true or false as quickly as possible without sacrificing accuracy. Some statements will be difficult and some will be easier.  We do not expect you to know the correct answer for all 80 statements.  Press SPACE to Continue",4977,2022-04-06_20h04.12.733,ImplicitInfinitySC-FASTTASK,2021.2.3,Win32,60.76072427,,,,,,,,,,,,,,,,,,,,,,,,,,,
space,8.1725,0,1,1,1,1,"Each statement will appear on your screen for up to 4 seconds and you will have those 4 seconds to decide if it is true or false before the next statement appears. There will be a beep to inform you that you have 2.5 seconds remaining. Please make sure the sound on your computer is turned on. If you do not respond, that answer will be considered incorrect and the task will move on to the next statement. Press SPACE to continue",4977,2022-04-06_20h04.12.733,ImplicitInfinitySC-FASTTASK,2021.2.3,Win32,60.76072427,,,,,,,,,,,,,,,,,,,,,,,,,,,
space,18.4105,0,2,2,2,1,"If the statement is true, you will press the “F” key on your keyboard with your left pointer finger; if the statement is false, you will press the “J” key on your keyboard with your right pointer finger. Press SPACE to continue",4977,2022-04-06_20h04.12.733,ImplicitInfinitySC-FASTTASK,2021.2.3,Win32,60.76072427,,,,,,,,,,,,,,,,,,,,,,,,,,,
space,2.4375,0,3,3,3,1,"Prior to completing the study, you will complete 10 practice trials to familiarize yourself with the task. Your performance on these trials will determine your participation in the following study. Press SPACE to continue.",4977,2022-04-06_20h04.12.733,ImplicitInfinitySC-FASTTASK,2021.2.3,Win32,60.76072427,,,,,,,,,,,,,,,,,,,,,,,,,,,
space,0.2282,0,4,4,4,1,"If the statement is true, press the “F” key on your keyboard with your left pointer finger; if the statement is false, press the “J” key on your keyboard with your right pointer finger. Press SPACE to continue",4977,2022-04-06_20h04.12.733,ImplicitInfinitySC-FASTTASK,2021.2.3,Win32,60.76072427,,,,,,,,,,,,,,,,,,,,,,,,,,,
,,,,,,,,4977,2022-04-06_20h04.12.733,ImplicitInfinitySC-FASTTASK,2021.2.3,Win32,60.76072427,f,1,1.4855,space,0.8756,0,0,0,3,1,A clock is used to tell time,f,,,,,,,,,,,,,,,
,,,,,,,,4977,2022-04-06_20h04.12.733,ImplicitInfinitySC-FASTTASK,2021.2.3,Win32,60.76072427,f,1,1.0546,space,1.2421,0,1,1,0,1,A circle is a shape,f,,,,,,,,,,,,,,,
,,,,,,,,4977,2022-04-06_20h04.12.733,ImplicitInfinitySC-FASTTASK,2021.2.3,Win32,60.76072427,f,1,1.2812,space,0.4847,0,2,2,1,1,Dinosaurs are extinct,f,,,,,,,,,,,,,,,
,,,,,,,,4977,2022-04-06_20h04.12.733,ImplicitInfinitySC-FASTTASK,2021.2.3,Win32,60.76072427,f,1,1.9703,space,0.6771,0,3,3,4,1,Humans cannot breathe water,f,,,,,,,,,,,,,,,
,,,,,,,,4977,2022-04-06_20h04.12.733,ImplicitInfinitySC-FASTTASK,2021.2.3,Win32,60.76072427,j,1,1.2794,space,0.5535,0,4,4,7,1,The Earth is a star,j,,,,,,,,,,,,,,,
,,,,,,,,4977,2022-04-06_20h04.12.733,ImplicitInfinitySC-FASTTASK,2021.2.3,Win32,60.76072427,f,1,0.9628,space,0.5529,0,5,5,2,1,Magenta is a color,f,,,,,,,,,,,,,,,
,,,,,,,,4977,2022-04-06_20h04.12.733,ImplicitInfinitySC-FASTTASK,2021.2.3,Win32,60.76072427,j,1,1.2566,space,0.4699,0,6,6,9,1,Humans cannot eat food,j,,,,,,,,,,,,,,,
,,,,,,,,4977,2022-04-06_20h04.12.733,ImplicitInfinitySC-FASTTASK,2021.2.3,Win32,60.76072427,j,1,1.7162,space,0.4013,0,7,7,5,1,A truck is an animal,j,,,,,,,,,,,,,,,
,,,,,,,,4977,2022-04-06_20h04.12.733,ImplicitInfinitySC-FASTTASK,2021.2.3,Win32,60.76072427,j,1,1.0012,space,0.5368,0,8,8,8,1,Mississippi is a country,j,,,,,,,,,,,,,,,
,,,,,,,,4977,2022-04-06_20h04.12.733,ImplicitInfinitySC-FASTTASK,2021.2.3,Win32,60.76072427,j,1,1.4028,space,0.4912,0,9,9,6,1,Jupiter is the planet we live on,j,,,,,,,,,,,,,,,
,,,,,,,,4977,2022-04-06_20h04.12.733,ImplicitInfinitySC-FASTTASK,2021.2.3,Win32,60.76072427,,,,space,0.4455,,,,,,,,space,0.1681,j,0,2.113,,0,0,0,15,1,An inch can be always further divided,f,,
,,,,,,,,4977,2022-04-06_20h04.12.733,ImplicitInfinitySC-FASTTASK,2021.2.3,Win32,60.76072427,,,,space,0.3179,,,,,,,,,,j,1,1.8024,,0,1,1,43,1,The number five is endless,j,,
,,,,,,,,4977,2022-04-06_20h04.12.733,ImplicitInfinitySC-FASTTASK,2021.2.3,Win32,60.76072427,,,,space,0.3852,,,,,,,,,,j,1,0.8833,,0,2,2,122,1,The Earth is a star,j,,
,,,,,,,,4977,2022-04-06_20h04.12.733,ImplicitInfinitySC-FASTTASK,2021.2.3,Win32,60.76072427,,,,space,0.2553,,,,,,,,,,j,1,1.1708,,0,3,3,108,1,This sentence is written in Spanish,j,,
,,,,,,,,4977,2022-04-06_20h04.12.733,ImplicitInfinitySC-FASTTASK,2021.2.3,Win32,60.76072427,,,,space,0.2511,,,,,,,,,,j,1,1.2166,,0,4,4,127,1,A zebra is used to write,j,,
,,,,,,,,4977,2022-04-06_20h04.12.733,ImplicitInfinitySC-FASTTASK,2021.2.3,Win32,60.76072427,,,,space,0.2526,,,,,,,,,,f,1,1.0037,,0,5,5,97,1,Dolphins can swim in the ocean,f,,
,,,,,,,,4977,2022-04-06_20h04.12.733,ImplicitInfinitySC-FASTTASK,2021.2.3,Win32,60.76072427,,,,space,0.4015,,,,,,,,,,f,1,1.3848,,0,6,6,90,1,A triangle is not an animal,f,,
,,,,,,,,4977,2022-04-06_20h04.12.733,ImplicitInfinitySC-FASTTASK,2021.2.3,Win32,60.76072427,,,,space,0.3316,,,,,,,,,,f,1,1.5241,,0,7,7,55,1,Concrete is composed of matter,f,,
,,,,,,,,4977,2022-04-06_20h04.12.733,ImplicitInfinitySC-FASTTASK,2021.2.3,Win32,60.76072427,,,,space,0.2846,,,,,,,,,,j,1,1.1705,,0,8,8,81,1,Tables reproduce,j,,
,,,,,,,,4977,2022-04-06_20h04.12.733,ImplicitInfinitySC-FASTTASK,2021.2.3,Win32,60.76072427,,,,space,0.3357,,,,,,,,,,f,1,0.9895,,0,9,9,99,1,A motorcycle is a vehicle,f,,
,,,,,,,,4977,2022-04-06_20h04.12.733,ImplicitInfinitySC-FASTTASK,2021.2.3,Win32,60.76072427,,,,space,0.3019,,,,,,,,,,f,1,1.4878,,0,10,10,56,1,Diamonds have a molecular structure,f,,
,,,,,,,,4977,2022-04-06_20h04.12.733,ImplicitInfinitySC-FASTTASK,2021.2.3,Win32,60.76072427,,,,space,0.3203,,,,,,,,,,f,1,1.6892,,0,11,11,2,1,A minute has an end,f,,
,,,,,,,,4977,2022-04-06_20h04.12.733,ImplicitInfinitySC-FASTTASK,2021.2.3,Win32,60.76072427,,,,space,0.261,,,,,,,,,,j,1,1.2426,,0,12,12,80,1,Mittens need nutrients,j,,
,,,,,,,,4977,2022-04-06_20h04.12.733,ImplicitInfinitySC-FASTTASK,2021.2.3,Win32,60.76072427,,,,space,0.2849,,,,,,,,,,f,1,1.3225,,0,13,13,89,1,A square is a shape,f,,
,,,,,,,,4977,2022-04-06_20h04.12.733,ImplicitInfinitySC-FASTTASK,2021.2.3,Win32,60.76072427,,,,space,0.235,,,,,,,,,,j,1,1.0132,,0,14,14,118,1,A horse is used to tell time,j,,
,,,,,,,,4977,2022-04-06_20h04.12.733,ImplicitInfinitySC-FASTTASK,2021.2.3,Win32,60.76072427,,,,space,0.2449,,,,,,,,,,f,1,1.614,,0,15,15,104,1,The United States has a president,f,,
,,,,,,,,4977,2022-04-06_20h04.12.733,ImplicitInfinitySC-FASTTASK,2021.2.3,Win32,60.76072427,,,,space,0.3351,,,,,,,,,,j,1,1.6637,,0,16,16,24,1,Space is finite,j,,
,,,,,,,,4977,2022-04-06_20h04.12.733,ImplicitInfinitySC-FASTTASK,2021.2.3,Win32,60.76072427,,,,space,0.1671,,,,,,,,,,f,1,1.0539,,0,17,17,103,1,The United States is a country,f,,
,,,,,,,,4977,2022-04-06_20h04.12.733,ImplicitInfinitySC-FASTTASK,2021.2.3,Win32,60.76072427,,,,space,0.1769,,,,,,,,,,f,1,1.057,,0,18,18,102,1,The Earth is a planet,f,,
,,,,,,,,4977,2022-04-06_20h04.12.733,ImplicitInfinitySC-FASTTASK,2021.2.3,Win32,60.76072427,,,,space,0.2267,,,,,,,,,,j,1,1.0676,,0,19,19,5,1,A minute can go on forever,j,,
,,,,,,,,4977,2022-04-06_20h04.12.733,ImplicitInfinitySC-FASTTASK,2021.2.3,Win32,60.76072427,,,,space,0.252,,,,,,,,,,f,1,1.0717,,0,20,20,27,1,Space is endless,f,,
,,,,,,,,4977,2022-04-06_20h04.12.733,ImplicitInfinitySC-FASTTASK,2021.2.3,Win32,60.76072427,,,,space,0.2532,,,,,,,,,,j,1,1.1998,,0,21,21,63,1,Color can be put in a container,j,,
,,,,,,,,4977,2022-04-06_20h04.12.733,ImplicitInfinitySC-FASTTASK,2021.2.3,Win32,60.76072427,,,,space,0.2218,,,,,,,,,,j,1,1.1325,,0,22,22,116,1,Fish cannot swim in the ocean,j,,
,,,,,,,,4977,2022-04-06_20h04.12.733,ImplicitInfinitySC-FASTTASK,2021.2.3,Win32,60.76072427,,,,space,0.2563,,,,,,,,,,f,0,1.8011,,0,23,23,22,1,Time cannot always be further divided,j,,
,,,,,,,,4977,2022-04-06_20h04.12.733,ImplicitInfinitySC-FASTTASK,2021.2.3,Win32,60.76072427,,,,space,0.2668,,,,,,,,,,f,1,1.687,,0,24,24,10,1,An inch has an end,f,,
,,,,,,,,4977,2022-04-06_20h04.12.733,ImplicitInfinitySC-FASTTASK,2021.2.3,Win32,60.76072427,,,,space,0.2365,,,,,,,,,,j,0,1.2288,,0,25,25,31,1,Space can always be further divided,f,,
,,,,,,,,4977,2022-04-06_20h04.12.733,ImplicitInfinitySC-FASTTASK,2021.2.3,Win32,60.76072427,,,,space,0.2193,,,,,,,,,,j,1,1.0429,,0,26,26,9,1,An inch is infinite,j,,
,,,,,,,,4977,2022-04-06_20h04.12.733,ImplicitInfinitySC-FASTTASK,2021.2.3,Win32,60.76072427,,,,space,0.3405,,,,,,,,,,f,0,1.0978,,0,27,27,126,1,Humans can breathe water,j,,
,,,,,,,,4977,2022-04-06_20h04.12.733,ImplicitInfinitySC-FASTTASK,2021.2.3,Win32,60.76072427,,,,space,0.2521,,,,,,,,,,f,1,1.0323,,0,28,28,68,1,Algae is alive,f,,
,,,,,,,,4977,2022-04-06_20h04.12.733,ImplicitInfinitySC-FASTTASK,2021.2.3,Win32,60.76072427,,,,space,0.2088,,,,,,,,,,j,1,1.1487,,0,29,29,125,1,There are ninty states in the United States,j,,
,,,,,,,,4977,2022-04-06_20h04.12.733,ImplicitInfinitySC-FASTTASK,2021.2.3,Win32,60.76072427,,,,space,0.2026,,,,,,,,,,j,1,1.119,,0,30,30,13,1,An inch can go on forever,j,,
,,,,,,,,4977,2022-04-06_20h04.12.733,ImplicitInfinitySC-FASTTASK,2021.2.3,Win32,60.76072427,,,,space,0.213,,,,,,,,,,f,1,1.6636,,0,31,31,39,1,Numbers can always be further divided,f,,
,,,,,,,,4977,2022-04-06_20h04.12.733,ImplicitInfinitySC-FASTTASK,2021.2.3,Win32,60.76072427,,,,space,0.181,,,,,,,,,,j,1,1.9678,,0,32,32,84,1,Silence is composed of matter,j,,
,,,,,,,,4977,2022-04-06_20h04.12.733,ImplicitInfinitySC-FASTTASK,2021.2.3,Win32,60.76072427,,,,space,0.2166,,,,,,,,,,j,1,1.0226,,0,33,33,109,1,A square is a color,j,,
,,,,,,,,4977,2022-04-06_20h04.12.733,ImplicitInfinitySC-FASTTASK,2021.2.3,Win32,60.76072427,,,,space,0.177,,,,,,,,,,j,0,1.4643,,0,34,34,17,1,Time is infinite,f,,
,,,,,,,,4977,2022-04-06_20h04.12.733,ImplicitInfinitySC-FASTTASK,2021.2.3,Win32,60.76072427,,,,space,0.7601,,,,,,,,,,f,0,1.968,,0,35,35,41,1,The number five is infinite,j,,
,,,,,,,,4977,2022-04-06_20h04.12.733,ImplicitInfinitySC-FASTTASK,2021.2.3,Win32,60.76072427,,,,space,0.1934,,,,,,,,,,f,1,1.1873,,0,36,36,42,1,The number five has an end,f,,
,,,,,,,,4977,2022-04-06_20h04.12.733,ImplicitInfinitySC-FASTTASK,2021.2.3,Win32,60.76072427,,,,space,0.3667,,,,,,,,,,f,1,1.2309,,0,37,37,96,1,Fish can swim in the ocean,f,,
,,,,,,,,4977,2022-04-06_20h04.12.733,ImplicitInfinitySC-FASTTASK,2021.2.3,Win32,60.76072427,,,,space,0.3262,,,,,,,,,,f,1,0.9491,,0,38,38,52,1,Frogs reproduce,f,,
,,,,,,,,4977,2022-04-06_20h04.12.733,ImplicitInfinitySC-FASTTASK,2021.2.3,Win32,60.76072427,,,,space,0.2011,,,,,,,,,,j,1,1.0019,,0,39,39,120,1,A truck is an animal,j,,
,,,,,,,,4977,2022-04-06_20h04.12.733,ImplicitInfinitySC-FASTTASK,2021.2.3,Win32,60.76072427,,,,,,,,,,,,,,,f,1,1.4751,,0,40,40,48,1,Crocodiles are alive,f,,
,,,,,,,,4977,2022-04-06_20h04.12.733,ImplicitInfinitySC-FASTTASK,2021.2.3,Win32,60.76072427,,,,space,0.7339,,,,,,,,,,f,0,2.9992,,0,41,41,62,1,Helicopters reproduce,j,,
,,,,,,,,4977,2022-04-06_20h04.12.733,ImplicitInfinitySC-FASTTASK,2021.2.3,Win32,60.76072427,,,,space,0.3114,,,,,,,,,,j,0,1.7406,,0,42,42,47,1,The number five can always be further divided,f,,
,,,,,,,,4977,2022-04-06_20h04.12.733,ImplicitInfinitySC-FASTTASK,2021.2.3,Win32,60.76072427,,,,space,0.2725,,,,,,,,,,f,1,1.0048,,0,43,43,69,1,Bacteria are alive,f,,
,,,,,,,,4977,2022-04-06_20h04.12.733,ImplicitInfinitySC-FASTTASK,2021.2.3,Win32,60.76072427,,,,space,0.2337,,,,,,,,,,f,1,1.2045,,0,44,44,25,1,Space is infinite,f,,
,,,,,,,,4977,2022-04-06_20h04.12.733,ImplicitInfinitySC-FASTTASK,2021.2.3,Win32,60.76072427,,,,space,0.2344,,,,,,,,,,j,1,1.2892,,0,45,45,87,1,Dreams have a molecular structure,j,,
,,,,,,,,4977,2022-04-06_20h04.12.733,ImplicitInfinitySC-FASTTASK,2021.2.3,Win32,60.76072427,,,,space,0.2201,,,,,,,,,,j,1,1.6,,0,46,46,14,1,An inch cannot always be further divided,j,,
,,,,,,,,4977,2022-04-06_20h04.12.733,ImplicitInfinitySC-FASTTASK,2021.2.3,Win32,60.76072427,,,,space,0.1954,,,,,,,,,,f,1,0.8672,,0,47,47,51,1,Tigers reproduce,f,,
,,,,,,,,4977,2022-04-06_20h04.12.733,ImplicitInfinitySC-FASTTASK,2021.2.3,Win32,60.76072427,,,,space,0.205,,,,,,,,,,f,1,1.0708,,0,48,48,49,1,Pelicans are alive,f,,
,,,,,,,,4977,2022-04-06_20h04.12.733,ImplicitInfinitySC-FASTTASK,2021.2.3,Win32,60.76072427,,,,space,0.2281,,,,,,,,,,j,1,1.5655,,0,49,49,45,1,The number five can go on forever,j,,
,,,,,,,,4977,2022-04-06_20h04.12.733,ImplicitInfinitySC-FASTTASK,2021.2.3,Win32,60.76072427,,,,space,0.2185,,,,,,,,,,f,0,1.6327,,0,50,50,38,1,Numbers cannot always be further divided,j,,
,,,,,,,,4977,2022-04-06_20h04.12.733,ImplicitInfinitySC-FASTTASK,2021.2.3,Win32,60.76072427,,,,space,0.2149,,,,,,,,,,f,1,1.9532,,0,51,51,98,1,A clock is used to tell time,f,,
,,,,,,,,4977,2022-04-06_20h04.12.733,ImplicitInfinitySC-FASTTASK,2021.2.3,Win32,60.76072427,,,,space,0.2513,,,,,,,,,,j,0,1.3669,,0,52,52,70,1,Grass needs nutrients,f,,
,,,,,,,,4977,2022-04-06_20h04.12.733,ImplicitInfinitySC-FASTTASK,2021.2.3,Win32,60.76072427,,,,space,0.1511,,,,,,,,,,f,1,1.0338,,0,53,53,94,1,Orange is a color,f,,
,,,,,,,,4977,2022-04-06_20h04.12.733,ImplicitInfinitySC-FASTTASK,2021.2.3,Win32,60.76072427,,,,space,0.1602,,,,,,,,,,f,1,1.3834,,0,54,54,33,1,Numbers are infinite,f,,
,,,,,,,,4977,2022-04-06_20h04.12.733,ImplicitInfinitySC-FASTTASK,2021.2.3,Win32,60.76072427,,,,space,0.1278,,,,,,,,,,f,1,0.9974,,0,55,55,19,1,Time is endless,f,,
,,,,,,,,4977,2022-04-06_20h04.12.733,ImplicitInfinitySC-FASTTASK,2021.2.3,Win32,60.76072427,,,,space,0.1561,,,,,,,,,,j,1,0.9727,,0,56,56,26,1,Space has an end,j,,
,,,,,,,,4977,2022-04-06_20h04.12.733,ImplicitInfinitySC-FASTTASK,2021.2.3,Win32,60.76072427,,,,space,0.1477,,,,,,,,,,f,1,1.4852,,0,57,57,75,1,Frost is composed of matter,f,,
,,,,,,,,4977,2022-04-06_20h04.12.733,ImplicitInfinitySC-FASTTASK,2021.2.3,Win32,60.76072427,,,,space,0.4845,,,,,,,,,,j,0,0.748,,0,58,58,100,1,A truck is a vehicle,f,,
,,,,,,,,4977,2022-04-06_20h04.12.733,ImplicitInfinitySC-FASTTASK,2021.2.3,Win32,60.76072427,,,,space,0.2092,,,,,,,,,,f,1,1.0238,,0,59,59,57,1,Rocks have a molecular structure,f,,
,,,,,,,,4977,2022-04-06_20h04.12.733,ImplicitInfinitySC-FASTTASK,2021.2.3,Win32,60.76072427,,,,space,0.1838,,,,,,,,,,j,1,1.3161,,0,60,60,121,1,Jupiter is the planet we live on,j,,
,,,,,,,,4977,2022-04-06_20h04.12.733,ImplicitInfinitySC-FASTTASK,2021.2.3,Win32,60.76072427,,,,space,0.201,,,,,,,,,,j,0,1.0927,,0,61,61,40,1,The number five is finite,f,,
,,,,,,,,4977,2022-04-06_20h04.12.733,ImplicitInfinitySC-FASTTASK,2021.2.3,Win32,60.76072427,,,,space,0.0907,,,,,,,,,,f,1,1.8976,,0,62,62,77,1,Saliva has a molecular structure,f,,
,,,,,,,,4977,2022-04-06_20h04.12.733,ImplicitInfinitySC-FASTTASK,2021.2.3,Win32,60.76072427,,,,space,0.1865,,,,,,,,,,j,1,1.2903,,0,63,63,111,1,A circle is a flavor,j,,
,,,,,,,,4977,2022-04-06_20h04.12.733,ImplicitInfinitySC-FASTTASK,2021.2.3,Win32,60.76072427,,,,space,0.2296,,,,,,,,,,f,1,1.4876,,0,64,64,44,1,The number five cannot go on forever,f,,
,,,,,,,,4977,2022-04-06_20h04.12.733,ImplicitInfinitySC-FASTTASK,2021.2.3,Win32,60.76072427,,,,space,0.3178,,,,,,,,,,j,1,1.5693,,0,65,65,30,1,Space cannot always be further divided,j,,
,,,,,,,,4977,2022-04-06_20h04.12.733,ImplicitInfinitySC-FASTTASK,2021.2.3,Win32,60.76072427,,,,space,0.2675,,,,,,,,,,f,1,0.9193,,0,66,66,107,1,A pencil is used to write,f,,
,,,,,,,,4977,2022-04-06_20h04.12.733,ImplicitInfinitySC-FASTTASK,2021.2.3,Win32,60.76072427,,,,space,0.2097,,,,,,,,,,f,1,1.3489,,0,67,67,74,1,Foam is composed of matter,f,,
,,,,,,,,4977,2022-04-06_20h04.12.733,ImplicitInfinitySC-FASTTASK,2021.2.3,Win32,60.76072427,,,,space,0.2144,,,,,,,,,,j,1,1.0202,,0,68,68,115,1,Yellow is an animal,j,,
,,,,,,,,4977,2022-04-06_20h04.12.733,ImplicitInfinitySC-FASTTASK,2021.2.3,Win32,60.76072427,,,,space,0.1933,,,,,,,,,,f,1,0.7406,,0,69,69,93,1,Magenta is a color,f,,
,,,,,,,,4977,2022-04-06_20h04.12.733,ImplicitInfinitySC-FASTTASK,2021.2.3,Win32,60.76072427,,,,space,0.201,,,,,,,,,,j,1,1.297,,0,70,70,34,1,Numbers have an end,j,,
,,,,,,,,4977,2022-04-06_20h04.12.733,ImplicitInfinitySC-FASTTASK,2021.2.3,Win32,60.76072427,,,,space,0.2848,,,,,,,,,,j,1,1.1407,,0,71,71,123,1,Mississippi is a country,j,,
,,,,,,,,4977,2022-04-06_20h04.12.733,ImplicitInfinitySC-FASTTASK,2021.2.3,Win32,60.76072427,,,,space,0.5813,,,,,,,,,,j,0,1.3425,,0,72,72,12,1,An inch cannot go on forever,f,,
,,,,,,,,4977,2022-04-06_20h04.12.733,ImplicitInfinitySC-FASTTASK,2021.2.3,Win32,60.76072427,,,,space,0.4358,,,,,,,,,,f,1,1.0637,,0,73,73,0,1,A minute is finite,f,,
,,,,,,,,4977,2022-04-06_20h04.12.733,ImplicitInfinitySC-FASTTASK,2021.2.3,Win32,60.76072427,,,,space,0.2185,,,,,,,,,,f,1,1.2636,,0,74,74,23,1,Time can always be further divided,f,,
,,,,,,,,4977,2022-04-06_20h04.12.733,ImplicitInfinitySC-FASTTASK,2021.2.3,Win32,60.76072427,,,,space,0.1243,,,,,,,,,,f,1,1.6996,,0,75,75,50,1,Turtles need nutrients,f,,
,,,,,,,,4977,2022-04-06_20h04.12.733,ImplicitInfinitySC-FASTTASK,2021.2.3,Win32,60.76072427,,,,space,0.1409,,,,,,,,,,j,1,1.1987,,0,76,76,117,1,Dolphins cannot swim in the ocean,j,,
,,,,,,,,4977,2022-04-06_20h04.12.733,ImplicitInfinitySC-FASTTASK,2021.2.3,Win32,60.76072427,,,,space,0.1701,,,,,,,,,,j,1,1.5166,,0,77,77,16,1,Time is finite,j,,
,,,,,,,,4977,2022-04-06_20h04.12.733,ImplicitInfinitySC-FASTTASK,2021.2.3,Win32,60.76072427,,,,space,0.509,,,,,,,,,,f,0,1.2422,,0,78,78,85,1,Thoughts are composed of matter,j,,
,,,,,,,,4977,2022-04-06_20h04.12.733,ImplicitInfinitySC-FASTTASK,2021.2.3,Win32,60.76072427,,,,space,0.1829,,,,,,,,,,j,1,1.1692,,0,79,79,36,1,Numbers cannot go on forever,j,,
,,,,,,,,4977,2022-04-06_20h04.12.733,ImplicitInfinitySC-FASTTASK,2021.2.3,Win32,60.76072427,,,,space,0.1671,,,,,,,,,,f,1,1.0741,,0,80,80,101,1,Jupiter is in our solar system,f,,
,,,,,,,,4977,2022-04-06_20h04.12.733,ImplicitInfinitySC-FASTTASK,2021.2.3,Win32,60.76072427,,,,,,,,,,,,,,,,,,,,,,,,,,space,12.9638
