INSTRESP.keys,Instrloop.thisRepN,Instrloop.thisTrialN,Instrloop.thisN,Instrloop.thisIndex,Instrloop.ran,FastInstructions,participant,date,expName,psychopyVersion,OS,frameRate,INSTRESP.rt,key_resp_2.keys,key_resp_2.corr,key_resp_2.rt,Advance_Resp.keys,Practice.thisRepN,Practice.thisTrialN,Practice.thisN,Practice.thisIndex,Practice.ran,practicetext,practicecorrect,Advance_Resp.rt,key_resp_3.keys,key_resp.keys,key_resp.corr,key_resp.rt,encouragekey.keys,FastLoop.thisRepN,FastLoop.thisTrialN,FastLoop.thisN,FastLoop.thisIndex,FastLoop.ran,Statement,Correct,endstudykey.keys
,0,0,0,0,1,"You will be shown a total of 80 statements pertaining to mathematics, science, and social concepts. Your task is to determine whether each statement is true or false as quickly as possible without sacrificing accuracy. Some statements will be difficult and some will be easier.  We do not expect you to know the correct answer for all 80 statements.  Press SPACE to Continue",5425,2022-04-06_16h04.44.504,ImplicitInfinitySC-FASTTASK,2021.2.3,Win32,59.04581956,,,,,,,,,,,,,,,,,,,,,,,,,,
space,0,1,1,1,1,"Each statement will appear on your screen for up to 4 seconds and you will have those 4 seconds to decide if it is true or false before the next statement appears. There will be a beep to inform you that you have 2.5 seconds remaining. Please make sure the sound on your computer is turned on. If you do not respond, that answer will be considered incorrect and the task will move on to the next statement. Press SPACE to continue",5425,2022-04-06_16h04.44.504,ImplicitInfinitySC-FASTTASK,2021.2.3,Win32,59.04581956,16.4047,,,,,,,,,,,,,,,,,,,,,,,,,
space,0,2,2,2,1,"If the statement is true, you will press the “F” key on your keyboard with your left pointer finger; if the statement is false, you will press the “J” key on your keyboard with your right pointer finger. Press SPACE to continue",5425,2022-04-06_16h04.44.504,ImplicitInfinitySC-FASTTASK,2021.2.3,Win32,59.04581956,28.8888,,,,,,,,,,,,,,,,,,,,,,,,,
space,0,3,3,3,1,"Prior to completing the study, you will complete 10 practice trials to familiarize yourself with the task. Your performance on these trials will determine your participation in the following study. Press SPACE to continue.",5425,2022-04-06_16h04.44.504,ImplicitInfinitySC-FASTTASK,2021.2.3,Win32,59.04581956,6.2497,,,,,,,,,,,,,,,,,,,,,,,,,
space,0,4,4,4,1,"If the statement is true, press the “F” key on your keyboard with your left pointer finger; if the statement is false, press the “J” key on your keyboard with your right pointer finger. Press SPACE to continue",5425,2022-04-06_16h04.44.504,ImplicitInfinitySC-FASTTASK,2021.2.3,Win32,59.04581956,6.8643,,,,,,,,,,,,,,,,,,,,,,,,,
,,,,,,,5425,2022-04-06_16h04.44.504,ImplicitInfinitySC-FASTTASK,2021.2.3,Win32,59.04581956,,f,0,1.6818,,0,0,0,6,1,Jupiter is the planet we live on,j,,,,,,,,,,,,,,
,,,,,,,5425,2022-04-06_16h04.44.504,ImplicitInfinitySC-FASTTASK,2021.2.3,Win32,59.04581956,,f,1,1.7154,space,0,1,1,3,1,A clock is used to tell time,f,2.9344,,,,,,,,,,,,,
,,,,,,,5425,2022-04-06_16h04.44.504,ImplicitInfinitySC-FASTTASK,2021.2.3,Win32,59.04581956,,j,0,1.9363,,0,2,2,4,1,Humans cannot breathe water,f,,,,,,,,,,,,,,
,,,,,,,5425,2022-04-06_16h04.44.504,ImplicitInfinitySC-FASTTASK,2021.2.3,Win32,59.04581956,,f,1,1.2266,space,0,3,3,0,1,A circle is a shape,f,1.8447,,,,,,,,,,,,,
,,,,,,,5425,2022-04-06_16h04.44.504,ImplicitInfinitySC-FASTTASK,2021.2.3,Win32,59.04581956,,f,1,1.4815,space,0,4,4,1,1,Dinosaurs are extinct,f,2.3565,,,,,,,,,,,,,
,,,,,,,5425,2022-04-06_16h04.44.504,ImplicitInfinitySC-FASTTASK,2021.2.3,Win32,59.04581956,,j,1,1.195,space,0,5,5,7,1,The Earth is a star,j,2.5109,,,,,,,,,,,,,
,,,,,,,5425,2022-04-06_16h04.44.504,ImplicitInfinitySC-FASTTASK,2021.2.3,Win32,59.04581956,,f,1,1.183,space,0,6,6,2,1,Magenta is a color,f,1.0246,,,,,,,,,,,,,
,,,,,,,5425,2022-04-06_16h04.44.504,ImplicitInfinitySC-FASTTASK,2021.2.3,Win32,59.04581956,,j,1,1.4761,space,0,7,7,8,1,Mississippi is a country,j,0.8375,,,,,,,,,,,,,
,,,,,,,5425,2022-04-06_16h04.44.504,ImplicitInfinitySC-FASTTASK,2021.2.3,Win32,59.04581956,,j,1,1.538,space,0,8,8,9,1,Humans cannot eat food,j,0.825,,,,,,,,,,,,,
,,,,,,,5425,2022-04-06_16h04.44.504,ImplicitInfinitySC-FASTTASK,2021.2.3,Win32,59.04581956,,j,1,1.7644,space,0,9,9,5,1,A truck is an animal,j,0.675,,,,,,,,,,,,,
,,,,,,,5425,2022-04-06_16h04.44.504,ImplicitInfinitySC-FASTTASK,2021.2.3,Win32,59.04581956,,,,,space,,,,,,,,1.3188,,f,0,2.0965,,0,0,0,121,1,Jupiter is the planet we live on,j,
,,,,,,,5425,2022-04-06_16h04.44.504,ImplicitInfinitySC-FASTTASK,2021.2.3,Win32,59.04581956,,,,,,,,,,,,,,,f,1,1.5486,,0,1,1,68,1,Algae is alive,f,
,,,,,,,5425,2022-04-06_16h04.44.504,ImplicitInfinitySC-FASTTASK,2021.2.3,Win32,59.04581956,,,,,space,,,,,,,,0.7683,,f,0,2.9631,,0,2,2,46,1,The number five cannot always be further divided,j,
,,,,,,,5425,2022-04-06_16h04.44.504,ImplicitInfinitySC-FASTTASK,2021.2.3,Win32,59.04581956,,,,,space,,,,,,,,0.7661,,f,1,1.9348,,0,3,3,90,1,A triangle is not an animal,f,
,,,,,,,5425,2022-04-06_16h04.44.504,ImplicitInfinitySC-FASTTASK,2021.2.3,Win32,59.04581956,,,,,space,,,,,,,,0.7388,,f,1,2.214,,0,4,4,7,1,A minute can always be further divided,f,
,,,,,,,5425,2022-04-06_16h04.44.504,ImplicitInfinitySC-FASTTASK,2021.2.3,Win32,59.04581956,,,,,space,,,,,,,,0.8518,,f,1,2.5067,,0,5,5,42,1,The number five has an end,f,
,,,,,,,5425,2022-04-06_16h04.44.504,ImplicitInfinitySC-FASTTASK,2021.2.3,Win32,59.04581956,,,,,space,,,,,,,,0.6945,,j,1,1.1628,,0,6,6,58,1,Clocks are alive,j,
,,,,,,,5425,2022-04-06_16h04.44.504,ImplicitInfinitySC-FASTTASK,2021.2.3,Win32,59.04581956,,,,,space,,,,,,,,0.6949,,f,1,2.7094,,0,7,7,44,1,The number five cannot go on forever,f,
,,,,,,,5425,2022-04-06_16h04.44.504,ImplicitInfinitySC-FASTTASK,2021.2.3,Win32,59.04581956,,,,,space,,,,,,,,0.9179,,f,1,1.95,,0,8,8,56,1,Diamonds have a molecular structure,f,
,,,,,,,5425,2022-04-06_16h04.44.504,ImplicitInfinitySC-FASTTASK,2021.2.3,Win32,59.04581956,,,,,space,,,,,,,,0.5245,,j,0,2.3977,,0,9,9,27,1,Space is endless,f,
,,,,,,,5425,2022-04-06_16h04.44.504,ImplicitInfinitySC-FASTTASK,2021.2.3,Win32,59.04581956,,,,,space,,,,,,,,0.5114,,f,1,2.6149,,0,10,10,53,1,Bricks can be put in a container,f,
,,,,,,,5425,2022-04-06_16h04.44.504,ImplicitInfinitySC-FASTTASK,2021.2.3,Win32,59.04581956,,,,,space,,,,,,,,0.7013,,f,1,1.8415,,0,11,11,0,1,A minute is finite,f,
,,,,,,,5425,2022-04-06_16h04.44.504,ImplicitInfinitySC-FASTTASK,2021.2.3,Win32,59.04581956,,,,,space,,,,,,,,0.5584,,j,1,2.0451,,0,12,12,80,1,Mittens need nutrients,j,
,,,,,,,5425,2022-04-06_16h04.44.504,ImplicitInfinitySC-FASTTASK,2021.2.3,Win32,59.04581956,,,,,space,,,,,,,,0.55,,j,1,1.6904,,0,13,13,9,1,An inch is infinite,j,
,,,,,,,5425,2022-04-06_16h04.44.504,ImplicitInfinitySC-FASTTASK,2021.2.3,Win32,59.04581956,,,,,space,,,,,,,,0.5921,,j,1,1.4241,,0,14,14,109,1,A square is a color,j,
,,,,,,,5425,2022-04-06_16h04.44.504,ImplicitInfinitySC-FASTTASK,2021.2.3,Win32,59.04581956,,,,,space,,,,,,,,0.577,,j,1,1.146,,0,15,15,79,1,Forks are alive,j,
,,,,,,,5425,2022-04-06_16h04.44.504,ImplicitInfinitySC-FASTTASK,2021.2.3,Win32,59.04581956,,,,,space,,,,,,,,0.6207,,f,1,1.5417,,0,16,16,96,1,Fish can swim in the ocean,f,
,,,,,,,5425,2022-04-06_16h04.44.504,ImplicitInfinitySC-FASTTASK,2021.2.3,Win32,59.04581956,,,,,space,,,,,,,,0.6673,,j,1,2.1292,,0,17,17,87,1,Dreams have a molecular structure,j,
,,,,,,,5425,2022-04-06_16h04.44.504,ImplicitInfinitySC-FASTTASK,2021.2.3,Win32,59.04581956,,,,,space,,,,,,,,0.6126,,j,1,1.4637,,0,18,18,122,1,The Earth is a star,j,
,,,,,,,5425,2022-04-06_16h04.44.504,ImplicitInfinitySC-FASTTASK,2021.2.3,Win32,59.04581956,,,,,space,,,,,,,,0.4825,,f,1,2.1273,,0,19,19,40,1,The number five is finite,f,
,,,,,,,5425,2022-04-06_16h04.44.504,ImplicitInfinitySC-FASTTASK,2021.2.3,Win32,59.04581956,,,,,space,,,,,,,,0.5149,,f,1,2.0389,,0,20,20,54,1,Dumbells are composed of matter,f,
,,,,,,,5425,2022-04-06_16h04.44.504,ImplicitInfinitySC-FASTTASK,2021.2.3,Win32,59.04581956,,,,,space,,,,,,,,0.5385,,j,1,1.6481,,0,21,21,108,1,This sentence is written in Spanish,j,
,,,,,,,5425,2022-04-06_16h04.44.504,ImplicitInfinitySC-FASTTASK,2021.2.3,Win32,59.04581956,,,,,space,,,,,,,,0.5637,,j,1,1.1817,,0,22,22,115,1,Yellow is an animal,j,
,,,,,,,5425,2022-04-06_16h04.44.504,ImplicitInfinitySC-FASTTASK,2021.2.3,Win32,59.04581956,,,,,space,,,,,,,,0.4812,,f,0,2.5757,,0,23,23,28,1,Space cannot go on forever,j,
,,,,,,,5425,2022-04-06_16h04.44.504,ImplicitInfinitySC-FASTTASK,2021.2.3,Win32,59.04581956,,,,,space,,,,,,,,0.5312,,f,1,1.5377,,0,24,24,99,1,A motorcycle is a vehicle,f,
,,,,,,,5425,2022-04-06_16h04.44.504,ImplicitInfinitySC-FASTTASK,2021.2.3,Win32,59.04581956,,,,,space,,,,,,,,0.5221,,j,1,1.6931,,0,25,25,3,1,A minute is endless,j,
,,,,,,,5425,2022-04-06_16h04.44.504,ImplicitInfinitySC-FASTTASK,2021.2.3,Win32,59.04581956,,,,,space,,,,,,,,0.4979,,f,1,1.6581,,0,26,26,97,1,Dolphins can swim in the ocean,f,
,,,,,,,5425,2022-04-06_16h04.44.504,ImplicitInfinitySC-FASTTASK,2021.2.3,Win32,59.04581956,,,,,space,,,,,,,,0.4634,,j,1,1.9219,,0,27,27,83,1,Songs can be put in a container,j,
,,,,,,,5425,2022-04-06_16h04.44.504,ImplicitInfinitySC-FASTTASK,2021.2.3,Win32,59.04581956,,,,,space,,,,,,,,0.48,,f,1,2.132,,0,28,28,76,1,Pollen has a molecular structure,f,
,,,,,,,5425,2022-04-06_16h04.44.504,ImplicitInfinitySC-FASTTASK,2021.2.3,Win32,59.04581956,,,,,space,,,,,,,,0.8662,,j,1,1.5483,,0,29,29,59,1,Comets are alive,j,
,,,,,,,5425,2022-04-06_16h04.44.504,ImplicitInfinitySC-FASTTASK,2021.2.3,Win32,59.04581956,,,,,space,,,,,,,,0.6372,,j,1,1.586,,0,30,30,60,1,Robots need nutrients,j,
,,,,,,,5425,2022-04-06_16h04.44.504,ImplicitInfinitySC-FASTTASK,2021.2.3,Win32,59.04581956,,,,,space,,,,,,,,0.488,,f,1,1.4193,,0,31,31,88,1,This sentence is written in English,f,
,,,,,,,5425,2022-04-06_16h04.44.504,ImplicitInfinitySC-FASTTASK,2021.2.3,Win32,59.04581956,,,,,space,,,,,,,,0.4922,,j,1,1.5796,,0,32,32,62,1,Helicopters reproduce,j,
,,,,,,,5425,2022-04-06_16h04.44.504,ImplicitInfinitySC-FASTTASK,2021.2.3,Win32,59.04581956,,,,,space,,,,,,,,0.5061,,j,1,1.4178,,0,33,33,123,1,Mississippi is a country,j,
,,,,,,,5425,2022-04-06_16h04.44.504,ImplicitInfinitySC-FASTTASK,2021.2.3,Win32,59.04581956,,,,,space,,,,,,,,0.542,,j,1,1.4961,,0,34,34,127,1,A zebra is used to write,j,
,,,,,,,5425,2022-04-06_16h04.44.504,ImplicitInfinitySC-FASTTASK,2021.2.3,Win32,59.04581956,,,,,space,,,,,,,,0.5231,,f,1,1.9767,,0,35,35,15,1,An inch can be always further divided,f,
,,,,,,,5425,2022-04-06_16h04.44.504,ImplicitInfinitySC-FASTTASK,2021.2.3,Win32,59.04581956,,,,,space,,,,,,,,0.4774,,j,1,1.6054,,0,36,36,118,1,A horse is used to tell time,j,
,,,,,,,5425,2022-04-06_16h04.44.504,ImplicitInfinitySC-FASTTASK,2021.2.3,Win32,59.04581956,,,,,space,,,,,,,,0.4924,,f,1,1.4647,,0,37,37,4,1,A minute cannot go on forever,f,
,,,,,,,5425,2022-04-06_16h04.44.504,ImplicitInfinitySC-FASTTASK,2021.2.3,Win32,59.04581956,,,,,space,,,,,,,,0.6752,,f,1,1.4362,,0,38,38,23,1,Time can always be further divided,f,
,,,,,,,5425,2022-04-06_16h04.44.504,ImplicitInfinitySC-FASTTASK,2021.2.3,Win32,59.04581956,,,,,space,,,,,,,,0.4785,,f,1,1.3881,,0,39,39,8,1,An inch is finite,f,
,,,,,,,5425,2022-04-06_16h04.44.504,ImplicitInfinitySC-FASTTASK,2021.2.3,Win32,59.04581956,,,,,space,,,,,,,,1.997,,f,0,2.4424,,0,40,40,20,1,Time cannot go on forever,j,
,,,,,,,5425,2022-04-06_16h04.44.504,ImplicitInfinitySC-FASTTASK,2021.2.3,Win32,59.04581956,,,,,space,,,,,,,,0.6123,,j,0,1.2787,,0,41,41,72,1,Mushrooms reproduce,f,
,,,,,,,5425,2022-04-06_16h04.44.504,ImplicitInfinitySC-FASTTASK,2021.2.3,Win32,59.04581956,,,,,space,,,,,,,,0.5516,,j,0,1.9651,,0,42,42,25,1,Space is infinite,f,
,,,,,,,5425,2022-04-06_16h04.44.504,ImplicitInfinitySC-FASTTASK,2021.2.3,Win32,59.04581956,,,,,space,,,,,,,,0.5379,,j,1,1.7054,,0,43,43,14,1,An inch cannot always be further divided,j,
,,,,,,,5425,2022-04-06_16h04.44.504,ImplicitInfinitySC-FASTTASK,2021.2.3,Win32,59.04581956,,,,,space,,,,,,,,0.5857,,j,1,1.8215,,0,44,44,125,1,There are ninty states in the United States,j,
,,,,,,,5425,2022-04-06_16h04.44.504,ImplicitInfinitySC-FASTTASK,2021.2.3,Win32,59.04581956,,,,,space,,,,,,,,0.5227,,f,1,1.5709,,0,45,45,103,1,The United States is a country,f,
,,,,,,,5425,2022-04-06_16h04.44.504,ImplicitInfinitySC-FASTTASK,2021.2.3,Win32,59.04581956,,,,,space,,,,,,,,0.4342,,f,1,1.1142,,0,46,46,91,1,A circle is a shape,f,
,,,,,,,5425,2022-04-06_16h04.44.504,ImplicitInfinitySC-FASTTASK,2021.2.3,Win32,59.04581956,,,,,space,,,,,,,,0.4901,,f,1,1.0643,,0,47,47,49,1,Pelicans are alive,f,
,,,,,,,5425,2022-04-06_16h04.44.504,ImplicitInfinitySC-FASTTASK,2021.2.3,Win32,59.04581956,,,,,space,,,,,,,,0.5319,,f,1,0.9162,,0,48,48,94,1,Orange is a color,f,
,,,,,,,5425,2022-04-06_16h04.44.504,ImplicitInfinitySC-FASTTASK,2021.2.3,Win32,59.04581956,,,,,space,,,,,,,,0.4262,,j,1,1.2997,,0,49,49,13,1,An inch can go on forever,j,
,,,,,,,5425,2022-04-06_16h04.44.504,ImplicitInfinitySC-FASTTASK,2021.2.3,Win32,59.04581956,,,,,space,,,,,,,,0.6322,,f,1,1.4817,,0,50,50,12,1,An inch cannot go on forever,f,
,,,,,,,5425,2022-04-06_16h04.44.504,ImplicitInfinitySC-FASTTASK,2021.2.3,Win32,59.04581956,,,,,space,,,,,,,,0.4931,,f,1,1.4945,,0,51,51,69,1,Bacteria are alive,f,
,,,,,,,5425,2022-04-06_16h04.44.504,ImplicitInfinitySC-FASTTASK,2021.2.3,Win32,59.04581956,,,,,space,,,,,,,,0.4476,,j,1,2.2261,,0,52,52,67,1,Gravity has a molecular structure,j,
,,,,,,,5425,2022-04-06_16h04.44.504,ImplicitInfinitySC-FASTTASK,2021.2.3,Win32,59.04581956,,,,,space,,,,,,,,0.517,,f,0,2.2279,,0,53,53,85,1,Thoughts are composed of matter,j,
,,,,,,,5425,2022-04-06_16h04.44.504,ImplicitInfinitySC-FASTTASK,2021.2.3,Win32,59.04581956,,,,,space,,,,,,,,0.453,,j,1,1.3905,,0,54,54,110,1,A triangle is an animal,j,
,,,,,,,5425,2022-04-06_16h04.44.504,ImplicitInfinitySC-FASTTASK,2021.2.3,Win32,59.04581956,,,,,space,,,,,,,,0.4399,,j,0,1.823,,0,55,55,17,1,Time is infinite,f,
,,,,,,,5425,2022-04-06_16h04.44.504,ImplicitInfinitySC-FASTTASK,2021.2.3,Win32,59.04581956,,,,,space,,,,,,,,0.4327,,j,1,2.0309,,0,56,56,38,1,Numbers cannot always be further divided,j,
,,,,,,,5425,2022-04-06_16h04.44.504,ImplicitInfinitySC-FASTTASK,2021.2.3,Win32,59.04581956,,,,,space,,,,,,,,0.4141,,j,1,2.4761,,0,57,57,22,1,Time cannot always be further divided,j,
,,,,,,,5425,2022-04-06_16h04.44.504,ImplicitInfinitySC-FASTTASK,2021.2.3,Win32,59.04581956,,,,,space,,,,,,,,0.3775,,j,1,1.8483,,0,58,58,43,1,The number five is endless,j,
,,,,,,,5425,2022-04-06_16h04.44.504,ImplicitInfinitySC-FASTTASK,2021.2.3,Win32,59.04581956,,,,,space,,,,,,,,0.6003,,j,1,1.3099,,0,59,59,11,1,An inch is endless,j,
,,,,,,,5425,2022-04-06_16h04.44.504,ImplicitInfinitySC-FASTTASK,2021.2.3,Win32,59.04581956,,,,,space,,,,,,,,0.4047,,f,1,1.9894,,0,60,60,73,1,Bubbles can be put in a container,f,
,,,,,,,5425,2022-04-06_16h04.44.504,ImplicitInfinitySC-FASTTASK,2021.2.3,Win32,59.04581956,,,,,space,,,,,,,,0.3912,,f,1,2.3399,,0,61,61,35,1,Numbers are endless,f,
,,,,,,,5425,2022-04-06_16h04.44.504,ImplicitInfinitySC-FASTTASK,2021.2.3,Win32,59.04581956,,,,,space,,,,,,,,0.4987,,j,1,1.5948,,0,62,62,45,1,The number five can go on forever,j,
,,,,,,,5425,2022-04-06_16h04.44.504,ImplicitInfinitySC-FASTTASK,2021.2.3,Win32,59.04581956,,,,,space,,,,,,,,0.4596,,j,1,1.674,,0,63,63,124,1,The president of the United States is Oprah,j,
,,,,,,,5425,2022-04-06_16h04.44.504,ImplicitInfinitySC-FASTTASK,2021.2.3,Win32,59.04581956,,,,,space,,,,,,,,0.3783,,f,1,1.469,,0,64,64,70,1,Grass needs nutrients,f,
,,,,,,,5425,2022-04-06_16h04.44.504,ImplicitInfinitySC-FASTTASK,2021.2.3,Win32,59.04581956,,,,,space,,,,,,,,0.4107,,j,1,2.0452,,0,65,65,36,1,Numbers cannot go on forever,j,
,,,,,,,5425,2022-04-06_16h04.44.504,ImplicitInfinitySC-FASTTASK,2021.2.3,Win32,59.04581956,,,,,space,,,,,,,,0.4352,,f,1,1.6286,,0,66,66,74,1,Foam is composed of matter,f,
,,,,,,,5425,2022-04-06_16h04.44.504,ImplicitInfinitySC-FASTTASK,2021.2.3,Win32,59.04581956,,,,,space,,,,,,,,0.4473,,f,1,1.306,,0,67,67,2,1,A minute has an end,f,
,,,,,,,5425,2022-04-06_16h04.44.504,ImplicitInfinitySC-FASTTASK,2021.2.3,Win32,59.04581956,,,,,space,,,,,,,,0.4295,,j,1,1.5467,,0,68,68,18,1,Time has an end,j,
,,,,,,,5425,2022-04-06_16h04.44.504,ImplicitInfinitySC-FASTTASK,2021.2.3,Win32,59.04581956,,,,,space,,,,,,,,0.378,,f,1,2.1218,,0,69,69,106,1,Humans cannot breathe water,f,
,,,,,,,5425,2022-04-06_16h04.44.504,ImplicitInfinitySC-FASTTASK,2021.2.3,Win32,59.04581956,,,,,space,,,,,,,,0.4274,,f,1,1.183,,0,70,70,100,1,A truck is a vehicle,f,
,,,,,,,5425,2022-04-06_16h04.44.504,ImplicitInfinitySC-FASTTASK,2021.2.3,Win32,59.04581956,,,,,space,,,,,,,,0.4103,,j,1,1.0515,,0,71,71,111,1,A circle is a flavor,j,
,,,,,,,5425,2022-04-06_16h04.44.504,ImplicitInfinitySC-FASTTASK,2021.2.3,Win32,59.04581956,,,,,space,,,,,,,,0.4114,,f,1,1.0185,,0,72,72,48,1,Crocodiles are alive,f,
,,,,,,,5425,2022-04-06_16h04.44.504,ImplicitInfinitySC-FASTTASK,2021.2.3,Win32,59.04581956,,,,,space,,,,,,,,0.3717,,f,1,1.1824,,0,73,73,50,1,Turtles need nutrients,f,
,,,,,,,5425,2022-04-06_16h04.44.504,ImplicitInfinitySC-FASTTASK,2021.2.3,Win32,59.04581956,,,,,space,,,,,,,,0.3833,,j,1,1.8481,,0,74,74,16,1,Time is finite,j,
,,,,,,,5425,2022-04-06_16h04.44.504,ImplicitInfinitySC-FASTTASK,2021.2.3,Win32,59.04581956,,,,,space,,,,,,,,0.3777,,f,1,1.7151,,0,75,75,21,1,Time can go on forever,f,
,,,,,,,5425,2022-04-06_16h04.44.504,ImplicitInfinitySC-FASTTASK,2021.2.3,Win32,59.04581956,,,,,space,,,,,,,,0.4504,,f,1,1.9321,,0,76,76,77,1,Saliva has a molecular structure,f,
,,,,,,,5425,2022-04-06_16h04.44.504,ImplicitInfinitySC-FASTTASK,2021.2.3,Win32,59.04581956,,,,,space,,,,,,,,0.559,,j,1,1.6638,,0,77,77,65,1,Shadows are composed of matter,j,
,,,,,,,5425,2022-04-06_16h04.44.504,ImplicitInfinitySC-FASTTASK,2021.2.3,Win32,59.04581956,,,,,space,,,,,,,,0.3398,,f,1,1.013,,0,78,78,95,1,Yellow is a color,f,
,,,,,,,5425,2022-04-06_16h04.44.504,ImplicitInfinitySC-FASTTASK,2021.2.3,Win32,59.04581956,,,,,space,,,,,,,,0.3799,,j,1,0.984,,0,79,79,120,1,A truck is an animal,j,
,,,,,,,5425,2022-04-06_16h04.44.504,ImplicitInfinitySC-FASTTASK,2021.2.3,Win32,59.04581956,,,,,space,,,,,,,,0.3836,,f,1,0.9418,,0,80,80,52,1,Frogs reproduce,f,
,,,,,,,5425,2022-04-06_16h04.44.504,ImplicitInfinitySC-FASTTASK,2021.2.3,Win32,59.04581956,,,,,,,,,,,,,,,,,,,,,,,,,,
