INSTRESP.keys,INSTRESP.rt,Instrloop.thisRepN,Instrloop.thisTrialN,Instrloop.thisN,Instrloop.thisIndex,Instrloop.ran,FastInstructions,participant,date,expName,psychopyVersion,OS,frameRate,key_resp_2.keys,key_resp_2.corr,Advance_Resp.keys,Advance_Resp.rt,Practice.thisRepN,Practice.thisTrialN,Practice.thisN,Practice.thisIndex,Practice.ran,practicetext,practicecorrect,key_resp_2.rt,key_resp_3.keys,key_resp.keys,key_resp.corr,encouragekey.keys,FastLoop.thisRepN,FastLoop.thisTrialN,FastLoop.thisN,FastLoop.thisIndex,FastLoop.ran,Statement,Correct,key_resp.rt,encouragekey.rt,endstudykey.keys,endstudykey.rt
space,20.7295,0,0,0,0,1,"You will be shown a total of 80 statements pertaining to mathematics, science, and social concepts. Your task is to determine whether each statement is true or false as quickly as possible without sacrificing accuracy. Some statements will be difficult and some will be easier.  We do not expect you to know the correct answer for all 80 statements.  Press SPACE to Continue",6279,2022-04-06_17h58.14.200,ImplicitInfinitySC-FASTTASK,2021.2.3,Win32,60.66120716,,,,,,,,,,,,,,,,,,,,,,,,,,,
space,19.5558,0,1,1,1,1,"Each statement will appear on your screen for up to 4 seconds and you will have those 4 seconds to decide if it is true or false before the next statement appears. There will be a beep to inform you that you have 2.5 seconds remaining. Please make sure the sound on your computer is turned on. If you do not respond, that answer will be considered incorrect and the task will move on to the next statement. Press SPACE to continue",6279,2022-04-06_17h58.14.200,ImplicitInfinitySC-FASTTASK,2021.2.3,Win32,60.66120716,,,,,,,,,,,,,,,,,,,,,,,,,,,
space,10.8071,0,2,2,2,1,"If the statement is true, you will press the “F” key on your keyboard with your left pointer finger; if the statement is false, you will press the “J” key on your keyboard with your right pointer finger. Press SPACE to continue",6279,2022-04-06_17h58.14.200,ImplicitInfinitySC-FASTTASK,2021.2.3,Win32,60.66120716,,,,,,,,,,,,,,,,,,,,,,,,,,,
space,8.366,0,3,3,3,1,"Prior to completing the study, you will complete 10 practice trials to familiarize yourself with the task. Your performance on these trials will determine your participation in the following study. Press SPACE to continue.",6279,2022-04-06_17h58.14.200,ImplicitInfinitySC-FASTTASK,2021.2.3,Win32,60.66120716,,,,,,,,,,,,,,,,,,,,,,,,,,,
space,5.0834,0,4,4,4,1,"If the statement is true, press the “F” key on your keyboard with your left pointer finger; if the statement is false, press the “J” key on your keyboard with your right pointer finger. Press SPACE to continue",6279,2022-04-06_17h58.14.200,ImplicitInfinitySC-FASTTASK,2021.2.3,Win32,60.66120716,,,,,,,,,,,,,,,,,,,,,,,,,,,
,,,,,,,,6279,2022-04-06_17h58.14.200,ImplicitInfinitySC-FASTTASK,2021.2.3,Win32,60.66120716,,0,space,2.1917,0,0,0,9,1,Humans cannot eat food,j,,,,,,,,,,,,,,,,
,,,,,,,,6279,2022-04-06_17h58.14.200,ImplicitInfinitySC-FASTTASK,2021.2.3,Win32,60.66120716,j,0,space,1.5394,0,1,1,4,1,Humans cannot breathe water,f,2.9435,,,,,,,,,,,,,,,
,,,,,,,,6279,2022-04-06_17h58.14.200,ImplicitInfinitySC-FASTTASK,2021.2.3,Win32,60.66120716,j,1,space,1.0443,0,2,2,7,1,The Earth is a star,j,1.4101,,,,,,,,,,,,,,,
,,,,,,,,6279,2022-04-06_17h58.14.200,ImplicitInfinitySC-FASTTASK,2021.2.3,Win32,60.66120716,j,1,space,0.8292,0,3,3,8,1,Mississippi is a country,j,1.3746,,,,,,,,,,,,,,,
,,,,,,,,6279,2022-04-06_17h58.14.200,ImplicitInfinitySC-FASTTASK,2021.2.3,Win32,60.66120716,j,1,space,1.8055,0,4,4,5,1,A truck is an animal,j,1.471,,,,,,,,,,,,,,,
,,,,,,,,6279,2022-04-06_17h58.14.200,ImplicitInfinitySC-FASTTASK,2021.2.3,Win32,60.66120716,j,1,space,1.2356,0,5,5,6,1,Jupiter is the planet we live on,j,1.6474,,,,,,,,,,,,,,,
,,,,,,,,6279,2022-04-06_17h58.14.200,ImplicitInfinitySC-FASTTASK,2021.2.3,Win32,60.66120716,f,1,space,1.038,0,6,6,2,1,Magenta is a color,f,1.469,,,,,,,,,,,,,,,
,,,,,,,,6279,2022-04-06_17h58.14.200,ImplicitInfinitySC-FASTTASK,2021.2.3,Win32,60.66120716,j,0,space,1.5829,0,7,7,0,1,A circle is a shape,f,2.4684,,,,,,,,,,,,,,,
,,,,,,,,6279,2022-04-06_17h58.14.200,ImplicitInfinitySC-FASTTASK,2021.2.3,Win32,60.66120716,f,1,space,0.7839,0,8,8,3,1,A clock is used to tell time,f,1.2935,,,,,,,,,,,,,,,
,,,,,,,,6279,2022-04-06_17h58.14.200,ImplicitInfinitySC-FASTTASK,2021.2.3,Win32,60.66120716,f,1,space,0.4366,0,9,9,1,1,Dinosaurs are extinct,f,1.5005,,,,,,,,,,,,,,,
,,,,,,,,6279,2022-04-06_17h58.14.200,ImplicitInfinitySC-FASTTASK,2021.2.3,Win32,60.66120716,,,space,1.5004,,,,,,,,,,,0,,0,0,0,118,1,A horse is used to tell time,j,,,,
,,,,,,,,6279,2022-04-06_17h58.14.200,ImplicitInfinitySC-FASTTASK,2021.2.3,Win32,60.66120716,,,space,2.3504,,,,,,,,,,f,1,,0,1,1,39,1,Numbers can always be further divided,f,0.5068,,,
,,,,,,,,6279,2022-04-06_17h58.14.200,ImplicitInfinitySC-FASTTASK,2021.2.3,Win32,60.66120716,,,space,1.8031,,,,,,,,,,f,1,,0,2,2,88,1,This sentence is written in English,f,2.4486,,,
,,,,,,,,6279,2022-04-06_17h58.14.200,ImplicitInfinitySC-FASTTASK,2021.2.3,Win32,60.66120716,,,space,0.7083,,,,,,,,,,j,1,,0,3,3,122,1,The Earth is a star,j,1.4269,,,
,,,,,,,,6279,2022-04-06_17h58.14.200,ImplicitInfinitySC-FASTTASK,2021.2.3,Win32,60.66120716,,,space,0.5171,,,,,,,,,,f,1,,0,4,4,33,1,Numbers are infinite,f,2.0834,,,
,,,,,,,,6279,2022-04-06_17h58.14.200,ImplicitInfinitySC-FASTTASK,2021.2.3,Win32,60.66120716,,,space,0.6282,,,,,,,,,,j,1,,0,5,5,119,1,A motorcycle is a person,j,1.2465,,,
,,,,,,,,6279,2022-04-06_17h58.14.200,ImplicitInfinitySC-FASTTASK,2021.2.3,Win32,60.66120716,,,space,0.7211,,,,,,,,,,f,1,,0,6,6,72,1,Mushrooms reproduce,f,2.325,,,
,,,,,,,,6279,2022-04-06_17h58.14.200,ImplicitInfinitySC-FASTTASK,2021.2.3,Win32,60.66120716,,,space,0.5367,,,,,,,,,,j,0,,0,7,7,42,1,The number five has an end,f,1.6674,,,
,,,,,,,,6279,2022-04-06_17h58.14.200,ImplicitInfinitySC-FASTTASK,2021.2.3,Win32,60.66120716,,,space,0.4847,,,,,,,,,,j,1,,0,8,8,112,1,Dinosaurs are not extinct,j,1.4756,,,
,,,,,,,,6279,2022-04-06_17h58.14.200,ImplicitInfinitySC-FASTTASK,2021.2.3,Win32,60.66120716,,,space,1.0905,,,,,,,,,,f,1,,0,9,9,90,1,A triangle is not an animal,f,2.2031,,,
,,,,,,,,6279,2022-04-06_17h58.14.200,ImplicitInfinitySC-FASTTASK,2021.2.3,Win32,60.66120716,,,space,0.4212,,,,,,,,,,j,1,,0,10,10,61,1,Sailboats reproduce,j,1.3856,,,
,,,,,,,,6279,2022-04-06_17h58.14.200,ImplicitInfinitySC-FASTTASK,2021.2.3,Win32,60.66120716,,,space,0.6169,,,,,,,,,,f,1,,0,11,11,55,1,Concrete is composed of matter,f,2.2995,,,
,,,,,,,,6279,2022-04-06_17h58.14.200,ImplicitInfinitySC-FASTTASK,2021.2.3,Win32,60.66120716,,,space,0.7636,,,,,,,,,,j,1,,0,12,12,3,1,A minute is endless,j,2.6629,,,
,,,,,,,,6279,2022-04-06_17h58.14.200,ImplicitInfinitySC-FASTTASK,2021.2.3,Win32,60.66120716,,,space,0.3369,,,,,,,,,,j,1,,0,13,13,125,1,There are ninty states in the United States,j,2.1497,,,
,,,,,,,,6279,2022-04-06_17h58.14.200,ImplicitInfinitySC-FASTTASK,2021.2.3,Win32,60.66120716,,,space,0.2369,,,,,,,,,,f,1,,0,14,14,93,1,Magenta is a color,f,1.1,,,
,,,,,,,,6279,2022-04-06_17h58.14.200,ImplicitInfinitySC-FASTTASK,2021.2.3,Win32,60.66120716,,,space,0.0004,,,,,,,,,,f,1,,0,15,15,15,1,An inch can be always further divided,f,2.8098,,,
,,,,,,,,6279,2022-04-06_17h58.14.200,ImplicitInfinitySC-FASTTASK,2021.2.3,Win32,60.66120716,,,space,0.4009,,,,,,,,,,j,1,,0,16,16,115,1,Yellow is an animal,j,1.174,,,
,,,,,,,,6279,2022-04-06_17h58.14.200,ImplicitInfinitySC-FASTTASK,2021.2.3,Win32,60.66120716,,,space,0.2626,,,,,,,,,,j,1,,0,17,17,81,1,Tables reproduce,j,1.3897,,,
,,,,,,,,6279,2022-04-06_17h58.14.200,ImplicitInfinitySC-FASTTASK,2021.2.3,Win32,60.66120716,,,space,0.4674,,,,,,,,,,f,1,,0,18,18,89,1,A square is a shape,f,1.0877,,,
,,,,,,,,6279,2022-04-06_17h58.14.200,ImplicitInfinitySC-FASTTASK,2021.2.3,Win32,60.66120716,,,space,0.4671,,,,,,,,,,j,1,,0,19,19,28,1,Space cannot go on forever,j,1.873,,,
,,,,,,,,6279,2022-04-06_17h58.14.200,ImplicitInfinitySC-FASTTASK,2021.2.3,Win32,60.66120716,,,space,0.3764,,,,,,,,,,j,1,,0,20,20,66,1,Music has a molecular structure,j,2.367,,,
,,,,,,,,6279,2022-04-06_17h58.14.200,ImplicitInfinitySC-FASTTASK,2021.2.3,Win32,60.66120716,,,space,0.3595,,,,,,,,,,j,1,,0,21,21,117,1,Dolphins cannot swim in the ocean,j,2.0374,,,
,,,,,,,,6279,2022-04-06_17h58.14.200,ImplicitInfinitySC-FASTTASK,2021.2.3,Win32,60.66120716,,,space,0.4786,,,,,,,,,,f,0,,0,22,22,59,1,Comets are alive,j,2.2157,,,
,,,,,,,,6279,2022-04-06_17h58.14.200,ImplicitInfinitySC-FASTTASK,2021.2.3,Win32,60.66120716,,,space,0.6964,,,,,,,,,,f,1,,0,23,23,57,1,Rocks have a molecular structure,f,2.113,,,
,,,,,,,,6279,2022-04-06_17h58.14.200,ImplicitInfinitySC-FASTTASK,2021.2.3,Win32,60.66120716,,,space,0.4043,,,,,,,,,,j,1,,0,24,24,36,1,Numbers cannot go on forever,j,1.4667,,,
,,,,,,,,6279,2022-04-06_17h58.14.200,ImplicitInfinitySC-FASTTASK,2021.2.3,Win32,60.66120716,,,space,0.3886,,,,,,,,,,f,1,,0,25,25,97,1,Dolphins can swim in the ocean,f,1.2667,,,
,,,,,,,,6279,2022-04-06_17h58.14.200,ImplicitInfinitySC-FASTTASK,2021.2.3,Win32,60.66120716,,,space,0.4021,,,,,,,,,,f,1,,0,26,26,71,1,Oaks reproduce,f,1.5668,,,
,,,,,,,,6279,2022-04-06_17h58.14.200,ImplicitInfinitySC-FASTTASK,2021.2.3,Win32,60.66120716,,,space,0.3942,,,,,,,,,,j,1,,0,27,27,41,1,The number five is infinite,j,1.6933,,,
,,,,,,,,6279,2022-04-06_17h58.14.200,ImplicitInfinitySC-FASTTASK,2021.2.3,Win32,60.66120716,,,space,0.4012,,,,,,,,,,j,1,,0,28,28,30,1,Space cannot always be further divided,j,2.8654,,,
,,,,,,,,6279,2022-04-06_17h58.14.200,ImplicitInfinitySC-FASTTASK,2021.2.3,Win32,60.66120716,,,space,0.45,,,,,,,,,,f,1,,0,29,29,35,1,Numbers are endless,f,1.6272,,,
,,,,,,,,6279,2022-04-06_17h58.14.200,ImplicitInfinitySC-FASTTASK,2021.2.3,Win32,60.66120716,,,space,0.4063,,,,,,,,,,j,1,,0,30,30,86,1,Words have a molecular structure,j,1.3834,,,
,,,,,,,,6279,2022-04-06_17h58.14.200,ImplicitInfinitySC-FASTTASK,2021.2.3,Win32,60.66120716,,,space,0.4334,,,,,,,,,,j,1,,0,31,31,20,1,Time cannot go on forever,j,1.5842,,,
,,,,,,,,6279,2022-04-06_17h58.14.200,ImplicitInfinitySC-FASTTASK,2021.2.3,Win32,60.66120716,,,space,0.4035,,,,,,,,,,j,1,,0,32,32,114,1,Lightbulbs are made of clay,j,1.7307,,,
,,,,,,,,6279,2022-04-06_17h58.14.200,ImplicitInfinitySC-FASTTASK,2021.2.3,Win32,60.66120716,,,space,0.4957,,,,,,,,,,f,1,,0,33,33,68,1,Algae is alive,f,1.2107,,,
,,,,,,,,6279,2022-04-06_17h58.14.200,ImplicitInfinitySC-FASTTASK,2021.2.3,Win32,60.66120716,,,space,0.5557,,,,,,,,,,j,1,,0,34,34,127,1,A zebra is used to write,j,1.1913,,,
,,,,,,,,6279,2022-04-06_17h58.14.200,ImplicitInfinitySC-FASTTASK,2021.2.3,Win32,60.66120716,,,space,0.4418,,,,,,,,,,j,0,,0,35,35,101,1,Jupiter is in our solar system,f,2.8725,,,
,,,,,,,,6279,2022-04-06_17h58.14.200,ImplicitInfinitySC-FASTTASK,2021.2.3,Win32,60.66120716,,,space,0.7132,,,,,,,,,,j,1,,0,36,36,84,1,Silence is composed of matter,j,2.1025,,,
,,,,,,,,6279,2022-04-06_17h58.14.200,ImplicitInfinitySC-FASTTASK,2021.2.3,Win32,60.66120716,,,space,0.3866,,,,,,,,,,j,1,,0,37,37,113,1,Magenta is a shape,j,1.201,,,
,,,,,,,,6279,2022-04-06_17h58.14.200,ImplicitInfinitySC-FASTTASK,2021.2.3,Win32,60.66120716,,,space,0.326,,,,,,,,,,j,1,,0,38,38,110,1,A triangle is an animal,j,1.236,,,
,,,,,,,,6279,2022-04-06_17h58.14.200,ImplicitInfinitySC-FASTTASK,2021.2.3,Win32,60.66120716,,,space,0.3447,,,,,,,,,,j,1,,0,39,39,22,1,Time cannot always be further divided,j,2.2833,,,
,,,,,,,,6279,2022-04-06_17h58.14.200,ImplicitInfinitySC-FASTTASK,2021.2.3,Win32,60.66120716,,,space,1.3808,,,,,,,,,,j,0,space,0,40,40,19,1,Time is endless,f,2.4335,4.4342,,
,,,,,,,,6279,2022-04-06_17h58.14.200,ImplicitInfinitySC-FASTTASK,2021.2.3,Win32,60.66120716,,,space,1.01,,,,,,,,,,j,1,,0,41,41,65,1,Shadows are composed of matter,j,1.5885,,,
,,,,,,,,6279,2022-04-06_17h58.14.200,ImplicitInfinitySC-FASTTASK,2021.2.3,Win32,60.66120716,,,space,0.7338,,,,,,,,,,j,0,,0,42,42,10,1,An inch has an end,f,2.2563,,,
,,,,,,,,6279,2022-04-06_17h58.14.200,ImplicitInfinitySC-FASTTASK,2021.2.3,Win32,60.66120716,,,space,0.4196,,,,,,,,,,f,1,,0,43,43,70,1,Grass needs nutrients,f,2.9058,,,
,,,,,,,,6279,2022-04-06_17h58.14.200,ImplicitInfinitySC-FASTTASK,2021.2.3,Win32,60.66120716,,,space,0.4343,,,,,,,,,,f,1,,0,44,44,98,1,A clock is used to tell time,f,1.4616,,,
,,,,,,,,6279,2022-04-06_17h58.14.200,ImplicitInfinitySC-FASTTASK,2021.2.3,Win32,60.66120716,,,space,0.3954,,,,,,,,,,f,1,,0,45,45,23,1,Time can always be further divided,f,1.7354,,,
,,,,,,,,6279,2022-04-06_17h58.14.200,ImplicitInfinitySC-FASTTASK,2021.2.3,Win32,60.66120716,,,space,0.4877,,,,,,,,,,f,1,,0,46,46,0,1,A minute is finite,f,3.1886,,,
,,,,,,,,6279,2022-04-06_17h58.14.200,ImplicitInfinitySC-FASTTASK,2021.2.3,Win32,60.66120716,,,space,0.0005,,,,,,,,,,f,1,,0,47,47,96,1,Fish can swim in the ocean,f,1.5802,,,
,,,,,,,,6279,2022-04-06_17h58.14.200,ImplicitInfinitySC-FASTTASK,2021.2.3,Win32,60.66120716,,,space,0.4198,,,,,,,,,,f,1,,0,48,48,25,1,Space is infinite,f,1.7825,,,
,,,,,,,,6279,2022-04-06_17h58.14.200,ImplicitInfinitySC-FASTTASK,2021.2.3,Win32,60.66120716,,,space,0.4506,,,,,,,,,,j,1,,0,49,49,108,1,This sentence is written in Spanish,j,1.3467,,,
,,,,,,,,6279,2022-04-06_17h58.14.200,ImplicitInfinitySC-FASTTASK,2021.2.3,Win32,60.66120716,,,space,1.0809,,,,,,,,,,f,1,,0,50,50,54,1,Dumbells are composed of matter,f,2.1408,,,
,,,,,,,,6279,2022-04-06_17h58.14.200,ImplicitInfinitySC-FASTTASK,2021.2.3,Win32,60.66120716,,,space,0.4172,,,,,,,,,,j,1,,0,51,51,13,1,An inch can go on forever,j,2.5615,,,
,,,,,,,,6279,2022-04-06_17h58.14.200,ImplicitInfinitySC-FASTTASK,2021.2.3,Win32,60.66120716,,,space,1.0522,,,,,,,,,,,0,,0,52,52,14,1,An inch cannot always be further divided,j,,,,
,,,,,,,,6279,2022-04-06_17h58.14.200,ImplicitInfinitySC-FASTTASK,2021.2.3,Win32,60.66120716,,,space,0.4813,,,,,,,,,,f,1,,0,53,53,104,1,The United States has a president,f,1.4545,,,
,,,,,,,,6279,2022-04-06_17h58.14.200,ImplicitInfinitySC-FASTTASK,2021.2.3,Win32,60.66120716,,,space,0.3463,,,,,,,,,,f,1,,0,54,54,12,1,An inch cannot go on forever,f,2.3511,,,
,,,,,,,,6279,2022-04-06_17h58.14.200,ImplicitInfinitySC-FASTTASK,2021.2.3,Win32,60.66120716,,,space,0.3395,,,,,,,,,,j,1,,0,55,55,78,1,Hammers are alive,j,1.4166,,,
,,,,,,,,6279,2022-04-06_17h58.14.200,ImplicitInfinitySC-FASTTASK,2021.2.3,Win32,60.66120716,,,space,0.279,,,,,,,,,,j,1,,0,56,56,109,1,A square is a color,j,1.2034,,,
,,,,,,,,6279,2022-04-06_17h58.14.200,ImplicitInfinitySC-FASTTASK,2021.2.3,Win32,60.66120716,,,space,0.432,,,,,,,,,,f,0,,0,57,57,34,1,Numbers have an end,j,1.478,,,
,,,,,,,,6279,2022-04-06_17h58.14.200,ImplicitInfinitySC-FASTTASK,2021.2.3,Win32,60.66120716,,,space,0.4024,,,,,,,,,,f,1,,0,58,58,92,1,Dinosaurs are extinct,f,1.3502,,,
,,,,,,,,6279,2022-04-06_17h58.14.200,ImplicitInfinitySC-FASTTASK,2021.2.3,Win32,60.66120716,,,space,0.3837,,,,,,,,,,f,1,,0,59,59,95,1,Yellow is a color,f,1.0285,,,
,,,,,,,,6279,2022-04-06_17h58.14.200,ImplicitInfinitySC-FASTTASK,2021.2.3,Win32,60.66120716,,,space,0.423,,,,,,,,,,j,1,,0,60,60,26,1,Space has an end,j,1.2527,,,
,,,,,,,,6279,2022-04-06_17h58.14.200,ImplicitInfinitySC-FASTTASK,2021.2.3,Win32,60.66120716,,,space,0.3676,,,,,,,,,,j,1,,0,61,61,11,1,An inch is endless,j,1.872,,,
,,,,,,,,6279,2022-04-06_17h58.14.200,ImplicitInfinitySC-FASTTASK,2021.2.3,Win32,60.66120716,,,space,0.418,,,,,,,,,,f,1,,0,62,62,2,1,A minute has an end,f,1.6999,,,
,,,,,,,,6279,2022-04-06_17h58.14.200,ImplicitInfinitySC-FASTTASK,2021.2.3,Win32,60.66120716,,,space,0.3253,,,,,,,,,,f,0,,0,63,63,126,1,Humans can breathe water,j,2.4068,,,
,,,,,,,,6279,2022-04-06_17h58.14.200,ImplicitInfinitySC-FASTTASK,2021.2.3,Win32,60.66120716,,,space,0.3379,,,,,,,,,,f,1,,0,64,64,76,1,Pollen has a molecular structure,f,1.4256,,,
,,,,,,,,6279,2022-04-06_17h58.14.200,ImplicitInfinitySC-FASTTASK,2021.2.3,Win32,60.66120716,,,space,0.7301,,,,,,,,,,f,1,,0,65,65,21,1,Time can go on forever,f,1.1914,,,
,,,,,,,,6279,2022-04-06_17h58.14.200,ImplicitInfinitySC-FASTTASK,2021.2.3,Win32,60.66120716,,,space,0.3352,,,,,,,,,,j,1,,0,66,66,82,1,Stones reproduce,j,1.3496,,,
,,,,,,,,6279,2022-04-06_17h58.14.200,ImplicitInfinitySC-FASTTASK,2021.2.3,Win32,60.66120716,,,space,0.3217,,,,,,,,,,f,1,,0,67,67,44,1,The number five cannot go on forever,f,2.2086,,,
,,,,,,,,6279,2022-04-06_17h58.14.200,ImplicitInfinitySC-FASTTASK,2021.2.3,Win32,60.66120716,,,space,0.3833,,,,,,,,,,j,1,,0,68,68,5,1,A minute can go on forever,j,1.5836,,,
,,,,,,,,6279,2022-04-06_17h58.14.200,ImplicitInfinitySC-FASTTASK,2021.2.3,Win32,60.66120716,,,space,0.3279,,,,,,,,,,j,1,,0,69,69,116,1,Fish cannot swim in the ocean,j,1.3316,,,
,,,,,,,,6279,2022-04-06_17h58.14.200,ImplicitInfinitySC-FASTTASK,2021.2.3,Win32,60.66120716,,,space,0.4059,,,,,,,,,,f,1,,0,70,70,99,1,A motorcycle is a vehicle,f,1.2987,,,
,,,,,,,,6279,2022-04-06_17h58.14.200,ImplicitInfinitySC-FASTTASK,2021.2.3,Win32,60.66120716,,,space,0.41,,,,,,,,,,j,1,,0,71,71,38,1,Numbers cannot always be further divided,j,1.5472,,,
,,,,,,,,6279,2022-04-06_17h58.14.200,ImplicitInfinitySC-FASTTASK,2021.2.3,Win32,60.66120716,,,space,0.4683,,,,,,,,,,f,0,,0,72,72,67,1,Gravity has a molecular structure,j,2.4491,,,
,,,,,,,,6279,2022-04-06_17h58.14.200,ImplicitInfinitySC-FASTTASK,2021.2.3,Win32,60.66120716,,,space,2.2127,,,,,,,,,,f,1,,0,73,73,37,1,Numbers can go on forever,f,1.2612,,,
,,,,,,,,6279,2022-04-06_17h58.14.200,ImplicitInfinitySC-FASTTASK,2021.2.3,Win32,60.66120716,,,space,0.497,,,,,,,,,,j,1,,0,74,74,85,1,Thoughts are composed of matter,j,1.3568,,,
,,,,,,,,6279,2022-04-06_17h58.14.200,ImplicitInfinitySC-FASTTASK,2021.2.3,Win32,60.66120716,,,space,0.4448,,,,,,,,,,f,1,,0,75,75,29,1,Space can go on forever,f,1.1376,,,
,,,,,,,,6279,2022-04-06_17h58.14.200,ImplicitInfinitySC-FASTTASK,2021.2.3,Win32,60.66120716,,,space,0.5245,,,,,,,,,,f,1,,0,76,76,102,1,The Earth is a planet,f,1.4615,,,
,,,,,,,,6279,2022-04-06_17h58.14.200,ImplicitInfinitySC-FASTTASK,2021.2.3,Win32,60.66120716,,,space,0.4004,,,,,,,,,,f,1,,0,77,77,74,1,Foam is composed of matter,f,1.6509,,,
,,,,,,,,6279,2022-04-06_17h58.14.200,ImplicitInfinitySC-FASTTASK,2021.2.3,Win32,60.66120716,,,space,0.4854,,,,,,,,,,j,1,,0,78,78,45,1,The number five can go on forever,j,1.3095,,,
,,,,,,,,6279,2022-04-06_17h58.14.200,ImplicitInfinitySC-FASTTASK,2021.2.3,Win32,60.66120716,,,space,0.4008,,,,,,,,,,f,1,,0,79,79,75,1,Frost is composed of matter,f,1.7381,,,
,,,,,,,,6279,2022-04-06_17h58.14.200,ImplicitInfinitySC-FASTTASK,2021.2.3,Win32,60.66120716,,,space,0.5156,,,,,,,,,,j,1,,0,80,80,111,1,A circle is a flavor,j,1.1575,,,
,,,,,,,,6279,2022-04-06_17h58.14.200,ImplicitInfinitySC-FASTTASK,2021.2.3,Win32,60.66120716,,,,,,,,,,,,,,,,,,,,,,,,,,space,17.4652
