INSTRESP.keys,INSTRESP.rt,Instrloop.thisRepN,Instrloop.thisTrialN,Instrloop.thisN,Instrloop.thisIndex,Instrloop.ran,FastInstructions,participant,date,expName,psychopyVersion,OS,frameRate,key_resp_2.keys,key_resp_2.corr,key_resp_2.rt,Advance_Resp.keys,Advance_Resp.rt,Practice.thisRepN,Practice.thisTrialN,Practice.thisN,Practice.thisIndex,Practice.ran,practicetext,practicecorrect,key_resp_3.keys,key_resp_3.rt,key_resp.keys,key_resp.corr,key_resp.rt,encouragekey.keys,FastLoop.thisRepN,FastLoop.thisTrialN,FastLoop.thisN,FastLoop.thisIndex,FastLoop.ran,Statement,Correct,encouragekey.rt,endstudykey.keys,endstudykey.rt
space,11.6617,0,0,0,0,1,"You will be shown a total of 80 statements pertaining to mathematics, science, and social concepts. Your task is to determine whether each statement is true or false as quickly as possible without sacrificing accuracy. Some statements will be difficult and some will be easier.  We do not expect you to know the correct answer for all 80 statements.  Press SPACE to Continue",6962,2022-04-06_19h04.35.303,ImplicitInfinitySC-FASTTASK,2021.2.3,Win32,47.92485383,,,,,,,,,,,,,,,,,,,,,,,,,,,,
space,18.5513,0,1,1,1,1,"Each statement will appear on your screen for up to 4 seconds and you will have those 4 seconds to decide if it is true or false before the next statement appears. There will be a beep to inform you that you have 2.5 seconds remaining. Please make sure the sound on your computer is turned on. If you do not respond, that answer will be considered incorrect and the task will move on to the next statement. Press SPACE to continue",6962,2022-04-06_19h04.35.303,ImplicitInfinitySC-FASTTASK,2021.2.3,Win32,47.92485383,,,,,,,,,,,,,,,,,,,,,,,,,,,,
space,14.5378,0,2,2,2,1,"If the statement is true, you will press the “F” key on your keyboard with your left pointer finger; if the statement is false, you will press the “J” key on your keyboard with your right pointer finger. Press SPACE to continue",6962,2022-04-06_19h04.35.303,ImplicitInfinitySC-FASTTASK,2021.2.3,Win32,47.92485383,,,,,,,,,,,,,,,,,,,,,,,,,,,,
space,5.2136,0,3,3,3,1,"Prior to completing the study, you will complete 10 practice trials to familiarize yourself with the task. Your performance on these trials will determine your participation in the following study. Press SPACE to continue.",6962,2022-04-06_19h04.35.303,ImplicitInfinitySC-FASTTASK,2021.2.3,Win32,47.92485383,,,,,,,,,,,,,,,,,,,,,,,,,,,,
space,3.0697,0,4,4,4,1,"If the statement is true, press the “F” key on your keyboard with your left pointer finger; if the statement is false, press the “J” key on your keyboard with your right pointer finger. Press SPACE to continue",6962,2022-04-06_19h04.35.303,ImplicitInfinitySC-FASTTASK,2021.2.3,Win32,47.92485383,,,,,,,,,,,,,,,,,,,,,,,,,,,,
,,,,,,,,6962,2022-04-06_19h04.35.303,ImplicitInfinitySC-FASTTASK,2021.2.3,Win32,47.92485383,j,1,1.7216,space,1.8278,0,0,0,8,1,Mississippi is a country,j,,,,,,,,,,,,,,,,
,,,,,,,,6962,2022-04-06_19h04.35.303,ImplicitInfinitySC-FASTTASK,2021.2.3,Win32,47.92485383,j,1,1.7318,space,1.8351,0,1,1,6,1,Jupiter is the planet we live on,j,,,,,,,,,,,,,,,,
,,,,,,,,6962,2022-04-06_19h04.35.303,ImplicitInfinitySC-FASTTASK,2021.2.3,Win32,47.92485383,f,1,1.5052,space,1.3554,0,2,2,3,1,A clock is used to tell time,f,,,,,,,,,,,,,,,,
,,,,,,,,6962,2022-04-06_19h04.35.303,ImplicitInfinitySC-FASTTASK,2021.2.3,Win32,47.92485383,f,1,1.1479,space,0.7322,0,3,3,2,1,Magenta is a color,f,,,,,,,,,,,,,,,,
,,,,,,,,6962,2022-04-06_19h04.35.303,ImplicitInfinitySC-FASTTASK,2021.2.3,Win32,47.92485383,j,1,1.499,space,0.667,0,4,4,7,1,The Earth is a star,j,,,,,,,,,,,,,,,,
,,,,,,,,6962,2022-04-06_19h04.35.303,ImplicitInfinitySC-FASTTASK,2021.2.3,Win32,47.92485383,j,1,1.5387,space,0.5218,0,5,5,5,1,A truck is an animal,j,,,,,,,,,,,,,,,,
,,,,,,,,6962,2022-04-06_19h04.35.303,ImplicitInfinitySC-FASTTASK,2021.2.3,Win32,47.92485383,j,0,2.0373,space,1.6057,0,6,6,4,1,Humans cannot breathe water,f,,,,,,,,,,,,,,,,
,,,,,,,,6962,2022-04-06_19h04.35.303,ImplicitInfinitySC-FASTTASK,2021.2.3,Win32,47.92485383,f,1,1.752,space,0.6691,0,7,7,0,1,A circle is a shape,f,,,,,,,,,,,,,,,,
,,,,,,,,6962,2022-04-06_19h04.35.303,ImplicitInfinitySC-FASTTASK,2021.2.3,Win32,47.92485383,f,1,1.3449,space,0.7507,0,8,8,1,1,Dinosaurs are extinct,f,,,,,,,,,,,,,,,,
,,,,,,,,6962,2022-04-06_19h04.35.303,ImplicitInfinitySC-FASTTASK,2021.2.3,Win32,47.92485383,j,1,1.6203,space,0.6469,0,9,9,9,1,Humans cannot eat food,j,,,,,,,,,,,,,,,,
,,,,,,,,6962,2022-04-06_19h04.35.303,ImplicitInfinitySC-FASTTASK,2021.2.3,Win32,47.92485383,,,,space,0.7599,,,,,,,,space,4.3798,f,1,1.095,,0,0,0,100,1,A truck is a vehicle,f,,,
,,,,,,,,6962,2022-04-06_19h04.35.303,ImplicitInfinitySC-FASTTASK,2021.2.3,Win32,47.92485383,,,,space,0.6925,,,,,,,,,,j,1,1.752,,0,1,1,66,1,Music has a molecular structure,j,,,
,,,,,,,,6962,2022-04-06_19h04.35.303,ImplicitInfinitySC-FASTTASK,2021.2.3,Win32,47.92485383,,,,space,1.106,,,,,,,,,,f,1,1.9606,,0,2,2,77,1,Saliva has a molecular structure,f,,,
,,,,,,,,6962,2022-04-06_19h04.35.303,ImplicitInfinitySC-FASTTASK,2021.2.3,Win32,47.92485383,,,,space,0.6999,,,,,,,,,,f,1,1.4115,,0,3,3,69,1,Bacteria are alive,f,,,
,,,,,,,,6962,2022-04-06_19h04.35.303,ImplicitInfinitySC-FASTTASK,2021.2.3,Win32,47.92485383,,,,space,0.6892,,,,,,,,,,j,1,1.5421,,0,4,4,87,1,Dreams have a molecular structure,j,,,
,,,,,,,,6962,2022-04-06_19h04.35.303,ImplicitInfinitySC-FASTTASK,2021.2.3,Win32,47.92485383,,,,space,0.5946,,,,,,,,,,f,1,1.2896,,0,5,5,70,1,Grass needs nutrients,f,,,
,,,,,,,,6962,2022-04-06_19h04.35.303,ImplicitInfinitySC-FASTTASK,2021.2.3,Win32,47.92485383,,,,space,0.4816,,,,,,,,,,j,1,1.4014,,0,6,6,86,1,Words have a molecular structure,j,,,
,,,,,,,,6962,2022-04-06_19h04.35.303,ImplicitInfinitySC-FASTTASK,2021.2.3,Win32,47.92485383,,,,space,0.6047,,,,,,,,,,j,1,1.6916,,0,7,7,28,1,Space cannot go on forever,j,,,
,,,,,,,,6962,2022-04-06_19h04.35.303,ImplicitInfinitySC-FASTTASK,2021.2.3,Win32,47.92485383,,,,space,0.6723,,,,,,,,,,j,0,2.1267,,0,8,8,73,1,Bubbles can be put in a container,f,,,
,,,,,,,,6962,2022-04-06_19h04.35.303,ImplicitInfinitySC-FASTTASK,2021.2.3,Win32,47.92485383,,,,space,0.5511,,,,,,,,,,j,1,1.5011,,0,9,9,16,1,Time is finite,j,,,
,,,,,,,,6962,2022-04-06_19h04.35.303,ImplicitInfinitySC-FASTTASK,2021.2.3,Win32,47.92485383,,,,space,0.6078,,,,,,,,,,f,1,2.0486,,0,10,10,23,1,Time can always be further divided,f,,,
,,,,,,,,6962,2022-04-06_19h04.35.303,ImplicitInfinitySC-FASTTASK,2021.2.3,Win32,47.92485383,,,,space,0.6271,,,,,,,,,,f,1,1.1097,,0,11,11,48,1,Crocodiles are alive,f,,,
,,,,,,,,6962,2022-04-06_19h04.35.303,ImplicitInfinitySC-FASTTASK,2021.2.3,Win32,47.92485383,,,,space,0.5179,,,,,,,,,,j,1,1.4684,,0,12,12,81,1,Tables reproduce,j,,,
,,,,,,,,6962,2022-04-06_19h04.35.303,ImplicitInfinitySC-FASTTASK,2021.2.3,Win32,47.92485383,,,,space,0.5021,,,,,,,,,,f,1,2.0773,,0,13,13,75,1,Frost is composed of matter,f,,,
,,,,,,,,6962,2022-04-06_19h04.35.303,ImplicitInfinitySC-FASTTASK,2021.2.3,Win32,47.92485383,,,,space,0.5031,,,,,,,,,,j,1,2.1424,,0,14,14,24,1,Space is finite,j,,,
,,,,,,,,6962,2022-04-06_19h04.35.303,ImplicitInfinitySC-FASTTASK,2021.2.3,Win32,47.92485383,,,,space,0.4629,,,,,,,,,,f,1,1.6628,,0,15,15,101,1,Jupiter is in our solar system,f,,,
,,,,,,,,6962,2022-04-06_19h04.35.303,ImplicitInfinitySC-FASTTASK,2021.2.3,Win32,47.92485383,,,,space,0.6483,,,,,,,,,,f,1,1.4382,,0,16,16,88,1,This sentence is written in English,f,,,
,,,,,,,,6962,2022-04-06_19h04.35.303,ImplicitInfinitySC-FASTTASK,2021.2.3,Win32,47.92485383,,,,space,0.4825,,,,,,,,,,f,1,1.3091,,0,17,17,96,1,Fish can swim in the ocean,f,,,
,,,,,,,,6962,2022-04-06_19h04.35.303,ImplicitInfinitySC-FASTTASK,2021.2.3,Win32,47.92485383,,,,space,0.4557,,,,,,,,,,f,1,1.7159,,0,18,18,10,1,An inch has an end,f,,,
,,,,,,,,6962,2022-04-06_19h04.35.303,ImplicitInfinitySC-FASTTASK,2021.2.3,Win32,47.92485383,,,,space,0.4397,,,,,,,,,,f,1,1.0471,,0,19,19,91,1,A circle is a shape,f,,,
,,,,,,,,6962,2022-04-06_19h04.35.303,ImplicitInfinitySC-FASTTASK,2021.2.3,Win32,47.92485383,,,,space,0.3906,,,,,,,,,,j,1,2.5025,,0,20,20,6,1,A minute cannot always be further divided,j,,,
,,,,,,,,6962,2022-04-06_19h04.35.303,ImplicitInfinitySC-FASTTASK,2021.2.3,Win32,47.92485383,,,,space,0.4837,,,,,,,,,,j,1,1.5674,,0,21,21,117,1,Dolphins cannot swim in the ocean,j,,,
,,,,,,,,6962,2022-04-06_19h04.35.303,ImplicitInfinitySC-FASTTASK,2021.2.3,Win32,47.92485383,,,,space,0.4594,,,,,,,,,,f,1,1.6242,,0,22,22,42,1,The number five has an end,f,,,
,,,,,,,,6962,2022-04-06_19h04.35.303,ImplicitInfinitySC-FASTTASK,2021.2.3,Win32,47.92485383,,,,space,0.4413,,,,,,,,,,j,1,1.0475,,0,23,23,61,1,Sailboats reproduce,j,,,
,,,,,,,,6962,2022-04-06_19h04.35.303,ImplicitInfinitySC-FASTTASK,2021.2.3,Win32,47.92485383,,,,space,0.4205,,,,,,,,,,f,1,1.9959,,0,24,24,4,1,A minute cannot go on forever,f,,,
,,,,,,,,6962,2022-04-06_19h04.35.303,ImplicitInfinitySC-FASTTASK,2021.2.3,Win32,47.92485383,,,,space,0.5298,,,,,,,,,,j,1,1.4806,,0,25,25,58,1,Clocks are alive,j,,,
,,,,,,,,6962,2022-04-06_19h04.35.303,ImplicitInfinitySC-FASTTASK,2021.2.3,Win32,47.92485383,,,,space,0.4591,,,,,,,,,,j,1,1.5652,,0,26,26,1,1,A minute is infinite,j,,,
,,,,,,,,6962,2022-04-06_19h04.35.303,ImplicitInfinitySC-FASTTASK,2021.2.3,Win32,47.92485383,,,,space,0.4393,,,,,,,,,,f,1,1.5844,,0,27,27,105,1,There are fifty states in the United States,f,,,
,,,,,,,,6962,2022-04-06_19h04.35.303,ImplicitInfinitySC-FASTTASK,2021.2.3,Win32,47.92485383,,,,space,0.4707,,,,,,,,,,j,1,0.9879,,0,28,28,111,1,A circle is a flavor,j,,,
,,,,,,,,6962,2022-04-06_19h04.35.303,ImplicitInfinitySC-FASTTASK,2021.2.3,Win32,47.92485383,,,,space,0.4232,,,,,,,,,,f,1,1.0425,,0,29,29,107,1,A pencil is used to write,f,,,
,,,,,,,,6962,2022-04-06_19h04.35.303,ImplicitInfinitySC-FASTTASK,2021.2.3,Win32,47.92485383,,,,space,0.447,,,,,,,,,,f,1,1.358,,0,30,30,44,1,The number five cannot go on forever,f,,,
,,,,,,,,6962,2022-04-06_19h04.35.303,ImplicitInfinitySC-FASTTASK,2021.2.3,Win32,47.92485383,,,,space,0.5943,,,,,,,,,,f,1,2.5017,,0,31,31,90,1,A triangle is not an animal,f,,,
,,,,,,,,6962,2022-04-06_19h04.35.303,ImplicitInfinitySC-FASTTASK,2021.2.3,Win32,47.92485383,,,,space,1.1946,,,,,,,,,,j,1,1.4803,,0,32,32,125,1,There are ninty states in the United States,j,,,
,,,,,,,,6962,2022-04-06_19h04.35.303,ImplicitInfinitySC-FASTTASK,2021.2.3,Win32,47.92485383,,,,space,0.5444,,,,,,,,,,j,1,1.4593,,0,33,33,124,1,The president of the United States is Oprah,j,,,
,,,,,,,,6962,2022-04-06_19h04.35.303,ImplicitInfinitySC-FASTTASK,2021.2.3,Win32,47.92485383,,,,space,0.4529,,,,,,,,,,j,1,1.3394,,0,34,34,123,1,Mississippi is a country,j,,,
,,,,,,,,6962,2022-04-06_19h04.35.303,ImplicitInfinitySC-FASTTASK,2021.2.3,Win32,47.92485383,,,,space,0.4397,,,,,,,,,,f,1,1.583,,0,35,35,53,1,Bricks can be put in a container,f,,,
,,,,,,,,6962,2022-04-06_19h04.35.303,ImplicitInfinitySC-FASTTASK,2021.2.3,Win32,47.92485383,,,,space,0.4545,,,,,,,,,,j,1,1.5067,,0,36,36,65,1,Shadows are composed of matter,j,,,
,,,,,,,,6962,2022-04-06_19h04.35.303,ImplicitInfinitySC-FASTTASK,2021.2.3,Win32,47.92485383,,,,space,0.3645,,,,,,,,,,f,1,1.3418,,0,37,37,55,1,Concrete is composed of matter,f,,,
,,,,,,,,6962,2022-04-06_19h04.35.303,ImplicitInfinitySC-FASTTASK,2021.2.3,Win32,47.92485383,,,,space,0.357,,,,,,,,,,f,1,0.921,,0,38,38,99,1,A motorcycle is a vehicle,f,,,
,,,,,,,,6962,2022-04-06_19h04.35.303,ImplicitInfinitySC-FASTTASK,2021.2.3,Win32,47.92485383,,,,space,0.3949,,,,,,,,,,j,1,1.2555,,0,39,39,5,1,A minute can go on forever,j,,,
,,,,,,,,6962,2022-04-06_19h04.35.303,ImplicitInfinitySC-FASTTASK,2021.2.3,Win32,47.92485383,,,,space,1.418,,,,,,,,,,f,1,2.524,space,0,40,40,68,1,Algae is alive,f,3.0447,,
,,,,,,,,6962,2022-04-06_19h04.35.303,ImplicitInfinitySC-FASTTASK,2021.2.3,Win32,47.92485383,,,,space,0.5416,,,,,,,,,,f,1,1.3492,,0,41,41,35,1,Numbers are endless,f,,,
,,,,,,,,6962,2022-04-06_19h04.35.303,ImplicitInfinitySC-FASTTASK,2021.2.3,Win32,47.92485383,,,,space,0.4205,,,,,,,,,,f,1,0.9538,,0,42,42,17,1,Time is infinite,f,,,
,,,,,,,,6962,2022-04-06_19h04.35.303,ImplicitInfinitySC-FASTTASK,2021.2.3,Win32,47.92485383,,,,space,0.4702,,,,,,,,,,j,1,1.278,,0,43,43,67,1,Gravity has a molecular structure,j,,,
,,,,,,,,6962,2022-04-06_19h04.35.303,ImplicitInfinitySC-FASTTASK,2021.2.3,Win32,47.92485383,,,,space,0.7675,,,,,,,,,,f,1,1.4742,,0,44,44,0,1,A minute is finite,f,,,
,,,,,,,,6962,2022-04-06_19h04.35.303,ImplicitInfinitySC-FASTTASK,2021.2.3,Win32,47.92485383,,,,space,0.6124,,,,,,,,,,j,1,0.9728,,0,45,45,62,1,Helicopters reproduce,j,,,
,,,,,,,,6962,2022-04-06_19h04.35.303,ImplicitInfinitySC-FASTTASK,2021.2.3,Win32,47.92485383,,,,space,0.5121,,,,,,,,,,j,1,1.4887,,0,46,46,13,1,An inch can go on forever,j,,,
,,,,,,,,6962,2022-04-06_19h04.35.303,ImplicitInfinitySC-FASTTASK,2021.2.3,Win32,47.92485383,,,,space,0.43,,,,,,,,,,j,1,1.4476,,0,47,47,9,1,An inch is infinite,j,,,
,,,,,,,,6962,2022-04-06_19h04.35.303,ImplicitInfinitySC-FASTTASK,2021.2.3,Win32,47.92485383,,,,space,0.3764,,,,,,,,,,f,1,0.9299,,0,48,48,103,1,The United States is a country,f,,,
,,,,,,,,6962,2022-04-06_19h04.35.303,ImplicitInfinitySC-FASTTASK,2021.2.3,Win32,47.92485383,,,,space,0.4174,,,,,,,,,,f,1,0.9429,,0,49,49,52,1,Frogs reproduce,f,,,
,,,,,,,,6962,2022-04-06_19h04.35.303,ImplicitInfinitySC-FASTTASK,2021.2.3,Win32,47.92485383,,,,space,0.4217,,,,,,,,,,f,1,1.1255,,0,50,50,29,1,Space can go on forever,f,,,
,,,,,,,,6962,2022-04-06_19h04.35.303,ImplicitInfinitySC-FASTTASK,2021.2.3,Win32,47.92485383,,,,space,0.4247,,,,,,,,,,f,1,1.7481,,0,51,51,31,1,Space can always be further divided,f,,,
,,,,,,,,6962,2022-04-06_19h04.35.303,ImplicitInfinitySC-FASTTASK,2021.2.3,Win32,47.92485383,,,,space,0.4108,,,,,,,,,,j,1,0.9309,,0,52,52,79,1,Forks are alive,j,,,
,,,,,,,,6962,2022-04-06_19h04.35.303,ImplicitInfinitySC-FASTTASK,2021.2.3,Win32,47.92485383,,,,space,0.4781,,,,,,,,,,f,1,1.1616,,0,53,53,25,1,Space is infinite,f,,,
,,,,,,,,6962,2022-04-06_19h04.35.303,ImplicitInfinitySC-FASTTASK,2021.2.3,Win32,47.92485383,,,,space,0.4402,,,,,,,,,,j,1,1.6425,,0,54,54,114,1,Lightbulbs are made of clay,j,,,
,,,,,,,,6962,2022-04-06_19h04.35.303,ImplicitInfinitySC-FASTTASK,2021.2.3,Win32,47.92485383,,,,space,0.4607,,,,,,,,,,j,1,1.0797,,0,55,55,122,1,The Earth is a star,j,,,
,,,,,,,,6962,2022-04-06_19h04.35.303,ImplicitInfinitySC-FASTTASK,2021.2.3,Win32,47.92485383,,,,space,0.3387,,,,,,,,,,j,1,2.1352,,0,56,56,85,1,Thoughts are composed of matter,j,,,
,,,,,,,,6962,2022-04-06_19h04.35.303,ImplicitInfinitySC-FASTTASK,2021.2.3,Win32,47.92485383,,,,space,0.4387,,,,,,,,,,j,1,1.4219,,0,57,57,109,1,A square is a color,j,,,
,,,,,,,,6962,2022-04-06_19h04.35.303,ImplicitInfinitySC-FASTTASK,2021.2.3,Win32,47.92485383,,,,space,0.44,,,,,,,,,,j,1,1.5438,,0,58,58,32,1,Numbers are finite,j,,,
,,,,,,,,6962,2022-04-06_19h04.35.303,ImplicitInfinitySC-FASTTASK,2021.2.3,Win32,47.92485383,,,,space,0.4203,,,,,,,,,,j,1,1.1286,,0,59,59,60,1,Robots need nutrients,j,,,
,,,,,,,,6962,2022-04-06_19h04.35.303,ImplicitInfinitySC-FASTTASK,2021.2.3,Win32,47.92485383,,,,space,0.4411,,,,,,,,,,j,1,1.315,,0,60,60,59,1,Comets are alive,j,,,
,,,,,,,,6962,2022-04-06_19h04.35.303,ImplicitInfinitySC-FASTTASK,2021.2.3,Win32,47.92485383,,,,space,0.3986,,,,,,,,,,f,1,1.2116,,0,61,61,97,1,Dolphins can swim in the ocean,f,,,
,,,,,,,,6962,2022-04-06_19h04.35.303,ImplicitInfinitySC-FASTTASK,2021.2.3,Win32,47.92485383,,,,space,0.3875,,,,,,,,,,j,1,1.1682,,0,62,62,43,1,The number five is endless,j,,,
,,,,,,,,6962,2022-04-06_19h04.35.303,ImplicitInfinitySC-FASTTASK,2021.2.3,Win32,47.92485383,,,,space,0.3565,,,,,,,,,,f,1,2.1019,,0,63,63,54,1,Dumbells are composed of matter,f,,,
,,,,,,,,6962,2022-04-06_19h04.35.303,ImplicitInfinitySC-FASTTASK,2021.2.3,Win32,47.92485383,,,,space,0.377,,,,,,,,,,j,1,1.204,,0,64,64,11,1,An inch is endless,j,,,
,,,,,,,,6962,2022-04-06_19h04.35.303,ImplicitInfinitySC-FASTTASK,2021.2.3,Win32,47.92485383,,,,space,0.4588,,,,,,,,,,j,1,1.5229,,0,65,65,110,1,A triangle is an animal,j,,,
,,,,,,,,6962,2022-04-06_19h04.35.303,ImplicitInfinitySC-FASTTASK,2021.2.3,Win32,47.92485383,,,,space,0.4349,,,,,,,,,,j,1,1.4633,,0,66,66,83,1,Songs can be put in a container,j,,,
,,,,,,,,6962,2022-04-06_19h04.35.303,ImplicitInfinitySC-FASTTASK,2021.2.3,Win32,47.92485383,,,,space,0.4195,,,,,,,,,,j,1,1.0429,,0,67,67,82,1,Stones reproduce,j,,,
,,,,,,,,6962,2022-04-06_19h04.35.303,ImplicitInfinitySC-FASTTASK,2021.2.3,Win32,47.92485383,,,,space,0.4427,,,,,,,,,,f,1,1.5228,,0,68,68,89,1,A square is a shape,f,,,
,,,,,,,,6962,2022-04-06_19h04.35.303,ImplicitInfinitySC-FASTTASK,2021.2.3,Win32,47.92485383,,,,space,0.3748,,,,,,,,,,j,1,0.9841,,0,69,69,119,1,A motorcycle is a person,j,,,
,,,,,,,,6962,2022-04-06_19h04.35.303,ImplicitInfinitySC-FASTTASK,2021.2.3,Win32,47.92485383,,,,space,0.3946,,,,,,,,,,f,1,1.0188,,0,70,70,93,1,Magenta is a color,f,,,
,,,,,,,,6962,2022-04-06_19h04.35.303,ImplicitInfinitySC-FASTTASK,2021.2.3,Win32,47.92485383,,,,space,0.5229,,,,,,,,,,f,1,1.1899,,0,71,71,19,1,Time is endless,f,,,
,,,,,,,,6962,2022-04-06_19h04.35.303,ImplicitInfinitySC-FASTTASK,2021.2.3,Win32,47.92485383,,,,space,0.3973,,,,,,,,,,j,1,1.1083,,0,72,72,80,1,Mittens need nutrients,j,,,
,,,,,,,,6962,2022-04-06_19h04.35.303,ImplicitInfinitySC-FASTTASK,2021.2.3,Win32,47.92485383,,,,space,0.4156,,,,,,,,,,j,1,1.2336,,0,73,73,115,1,Yellow is an animal,j,,,
,,,,,,,,6962,2022-04-06_19h04.35.303,ImplicitInfinitySC-FASTTASK,2021.2.3,Win32,47.92485383,,,,space,0.382,,,,,,,,,,f,1,1.3305,,0,74,74,33,1,Numbers are infinite,f,,,
,,,,,,,,6962,2022-04-06_19h04.35.303,ImplicitInfinitySC-FASTTASK,2021.2.3,Win32,47.92485383,,,,space,0.4467,,,,,,,,,,j,1,1.1666,,0,75,75,20,1,Time cannot go on forever,j,,,
,,,,,,,,6962,2022-04-06_19h04.35.303,ImplicitInfinitySC-FASTTASK,2021.2.3,Win32,47.92485383,,,,space,0.45,,,,,,,,,,j,1,1.5606,,0,76,76,30,1,Space cannot always be further divided,j,,,
,,,,,,,,6962,2022-04-06_19h04.35.303,ImplicitInfinitySC-FASTTASK,2021.2.3,Win32,47.92485383,,,,space,0.3822,,,,,,,,,,f,1,1.079,,0,77,77,102,1,The Earth is a planet,f,,,
,,,,,,,,6962,2022-04-06_19h04.35.303,ImplicitInfinitySC-FASTTASK,2021.2.3,Win32,47.92485383,,,,space,0.5213,,,,,,,,,,f,1,1.4165,,0,78,78,74,1,Foam is composed of matter,f,,,
,,,,,,,,6962,2022-04-06_19h04.35.303,ImplicitInfinitySC-FASTTASK,2021.2.3,Win32,47.92485383,,,,space,0.3773,,,,,,,,,,j,1,1.2673,,0,79,79,26,1,Space has an end,j,,,
,,,,,,,,6962,2022-04-06_19h04.35.303,ImplicitInfinitySC-FASTTASK,2021.2.3,Win32,47.92485383,,,,space,0.4394,,,,,,,,,,f,1,2.1639,,0,80,80,39,1,Numbers can always be further divided,f,,,
,,,,,,,,6962,2022-04-06_19h04.35.303,ImplicitInfinitySC-FASTTASK,2021.2.3,Win32,47.92485383,,,,,,,,,,,,,,,,,,,,,,,,,,,space,13.6693
