INSTRESP.keys,INSTRESP.rt,Instrloop.thisRepN,Instrloop.thisTrialN,Instrloop.thisN,Instrloop.thisIndex,Instrloop.ran,FastInstructions,participant,date,expName,psychopyVersion,OS,frameRate,key_resp_2.keys,key_resp_2.corr,key_resp_2.rt,Advance_Resp.keys,Advance_Resp.rt,Practice.thisRepN,Practice.thisTrialN,Practice.thisN,Practice.thisIndex,Practice.ran,practicetext,practicecorrect,key_resp_3.keys,key_resp.keys,key_resp.corr,encouragekey.keys,FastLoop.thisRepN,FastLoop.thisTrialN,FastLoop.thisN,FastLoop.thisIndex,FastLoop.ran,Statement,Correct,key_resp.rt,encouragekey.rt,endstudykey.keys,endstudykey.rt
space,13.3568,0,0,0,0,1,"You will be shown a total of 80 statements pertaining to mathematics, science, and social concepts. Your task is to determine whether each statement is true or false as quickly as possible without sacrificing accuracy. Some statements will be difficult and some will be easier.  We do not expect you to know the correct answer for all 80 statements.  Press SPACE to Continue",7932,2022-04-06_20h06.40.717,ImplicitInfinitySC-FASTTASK,2021.2.3,Win32,60.11421701,,,,,,,,,,,,,,,,,,,,,,,,,,,
space,14.3293,0,1,1,1,1,"Each statement will appear on your screen for up to 4 seconds and you will have those 4 seconds to decide if it is true or false before the next statement appears. There will be a beep to inform you that you have 2.5 seconds remaining. Please make sure the sound on your computer is turned on. If you do not respond, that answer will be considered incorrect and the task will move on to the next statement. Press SPACE to continue",7932,2022-04-06_20h06.40.717,ImplicitInfinitySC-FASTTASK,2021.2.3,Win32,60.11421701,,,,,,,,,,,,,,,,,,,,,,,,,,,
space,13.2554,0,2,2,2,1,"If the statement is true, you will press the “F” key on your keyboard with your left pointer finger; if the statement is false, you will press the “J” key on your keyboard with your right pointer finger. Press SPACE to continue",7932,2022-04-06_20h06.40.717,ImplicitInfinitySC-FASTTASK,2021.2.3,Win32,60.11421701,,,,,,,,,,,,,,,,,,,,,,,,,,,
space,2.2799,0,3,3,3,1,"Prior to completing the study, you will complete 10 practice trials to familiarize yourself with the task. Your performance on these trials will determine your participation in the following study. Press SPACE to continue.",7932,2022-04-06_20h06.40.717,ImplicitInfinitySC-FASTTASK,2021.2.3,Win32,60.11421701,,,,,,,,,,,,,,,,,,,,,,,,,,,
space,0.625,0,4,4,4,1,"If the statement is true, press the “F” key on your keyboard with your left pointer finger; if the statement is false, press the “J” key on your keyboard with your right pointer finger. Press SPACE to continue",7932,2022-04-06_20h06.40.717,ImplicitInfinitySC-FASTTASK,2021.2.3,Win32,60.11421701,,,,,,,,,,,,,,,,,,,,,,,,,,,
,,,,,,,,7932,2022-04-06_20h06.40.717,ImplicitInfinitySC-FASTTASK,2021.2.3,Win32,60.11421701,f,1,1.9676,space,1.3362,0,0,0,4,1,Humans cannot breathe water,f,,,,,,,,,,,,,,,
,,,,,,,,7932,2022-04-06_20h06.40.717,ImplicitInfinitySC-FASTTASK,2021.2.3,Win32,60.11421701,j,1,1.7695,space,0.8837,0,1,1,8,1,Mississippi is a country,j,,,,,,,,,,,,,,,
,,,,,,,,7932,2022-04-06_20h06.40.717,ImplicitInfinitySC-FASTTASK,2021.2.3,Win32,60.11421701,f,1,1.2671,space,0.776,0,2,2,2,1,Magenta is a color,f,,,,,,,,,,,,,,,
,,,,,,,,7932,2022-04-06_20h06.40.717,ImplicitInfinitySC-FASTTASK,2021.2.3,Win32,60.11421701,f,1,1.4834,space,0.7486,0,3,3,0,1,A circle is a shape,f,,,,,,,,,,,,,,,
,,,,,,,,7932,2022-04-06_20h06.40.717,ImplicitInfinitySC-FASTTASK,2021.2.3,Win32,60.11421701,j,1,1.4004,space,0.7003,0,4,4,7,1,The Earth is a star,j,,,,,,,,,,,,,,,
,,,,,,,,7932,2022-04-06_20h06.40.717,ImplicitInfinitySC-FASTTASK,2021.2.3,Win32,60.11421701,f,1,1.4333,space,0.7241,0,5,5,1,1,Dinosaurs are extinct,f,,,,,,,,,,,,,,,
,,,,,,,,7932,2022-04-06_20h06.40.717,ImplicitInfinitySC-FASTTASK,2021.2.3,Win32,60.11421701,j,1,1.2378,space,0.6167,0,6,6,5,1,A truck is an animal,j,,,,,,,,,,,,,,,
,,,,,,,,7932,2022-04-06_20h06.40.717,ImplicitInfinitySC-FASTTASK,2021.2.3,Win32,60.11421701,j,1,1.9378,space,0.8334,0,7,7,6,1,Jupiter is the planet we live on,j,,,,,,,,,,,,,,,
,,,,,,,,7932,2022-04-06_20h06.40.717,ImplicitInfinitySC-FASTTASK,2021.2.3,Win32,60.11421701,j,1,1.7287,space,0.7503,0,8,8,9,1,Humans cannot eat food,j,,,,,,,,,,,,,,,
,,,,,,,,7932,2022-04-06_20h06.40.717,ImplicitInfinitySC-FASTTASK,2021.2.3,Win32,60.11421701,f,1,1.5863,space,0.7323,0,9,9,3,1,A clock is used to tell time,f,,,,,,,,,,,,,,,
,,,,,,,,7932,2022-04-06_20h06.40.717,ImplicitInfinitySC-FASTTASK,2021.2.3,Win32,60.11421701,,,,space,3.5064,,,,,,,,,,0,,0,0,0,73,1,Bubbles can be put in a container,f,,,,
,,,,,,,,7932,2022-04-06_20h06.40.717,ImplicitInfinitySC-FASTTASK,2021.2.3,Win32,60.11421701,,,,space,0.93,,,,,,,,,f,0,,0,1,1,86,1,Words have a molecular structure,j,1.9226,,,
,,,,,,,,7932,2022-04-06_20h06.40.717,ImplicitInfinitySC-FASTTASK,2021.2.3,Win32,60.11421701,,,,space,0.6597,,,,,,,,,f,1,,0,2,2,99,1,A motorcycle is a vehicle,f,1.3378,,,
,,,,,,,,7932,2022-04-06_20h06.40.717,ImplicitInfinitySC-FASTTASK,2021.2.3,Win32,60.11421701,,,,space,0.8039,,,,,,,,,j,1,,0,3,3,110,1,A triangle is an animal,j,2.9042,,,
,,,,,,,,7932,2022-04-06_20h06.40.717,ImplicitInfinitySC-FASTTASK,2021.2.3,Win32,60.11421701,,,,space,0.6885,,,,,,,,,f,0,,0,4,4,14,1,An inch cannot always be further divided,j,2.642,,,
,,,,,,,,7932,2022-04-06_20h06.40.717,ImplicitInfinitySC-FASTTASK,2021.2.3,Win32,60.11421701,,,,space,0.734,,,,,,,,,j,1,,0,5,5,61,1,Sailboats reproduce,j,1.3076,,,
,,,,,,,,7932,2022-04-06_20h06.40.717,ImplicitInfinitySC-FASTTASK,2021.2.3,Win32,60.11421701,,,,space,0.6004,,,,,,,,,f,1,,0,6,6,2,1,A minute has an end,f,1.5466,,,
,,,,,,,,7932,2022-04-06_20h06.40.717,ImplicitInfinitySC-FASTTASK,2021.2.3,Win32,60.11421701,,,,space,0.4508,,,,,,,,,j,1,,0,7,7,114,1,Lightbulbs are made of clay,j,1.1529,,,
,,,,,,,,7932,2022-04-06_20h06.40.717,ImplicitInfinitySC-FASTTASK,2021.2.3,Win32,60.11421701,,,,space,0.5004,,,,,,,,,j,1,,0,8,8,22,1,Time cannot always be further divided,j,2.2798,,,
,,,,,,,,7932,2022-04-06_20h06.40.717,ImplicitInfinitySC-FASTTASK,2021.2.3,Win32,60.11421701,,,,space,0.5173,,,,,,,,,f,1,,0,9,9,72,1,Mushrooms reproduce,f,1.9256,,,
,,,,,,,,7932,2022-04-06_20h06.40.717,ImplicitInfinitySC-FASTTASK,2021.2.3,Win32,60.11421701,,,,space,0.4029,,,,,,,,,j,1,,0,10,10,85,1,Thoughts are composed of matter,j,1.3701,,,
,,,,,,,,7932,2022-04-06_20h06.40.717,ImplicitInfinitySC-FASTTASK,2021.2.3,Win32,60.11421701,,,,space,0.4466,,,,,,,,,f,1,,0,11,11,53,1,Bricks can be put in a container,f,1.9055,,,
,,,,,,,,7932,2022-04-06_20h06.40.717,ImplicitInfinitySC-FASTTASK,2021.2.3,Win32,60.11421701,,,,space,0.5556,,,,,,,,,f,1,,0,12,12,71,1,Oaks reproduce,f,1.5336,,,
,,,,,,,,7932,2022-04-06_20h06.40.717,ImplicitInfinitySC-FASTTASK,2021.2.3,Win32,60.11421701,,,,space,0.359,,,,,,,,,f,1,,0,13,13,55,1,Concrete is composed of matter,f,1.7171,,,
,,,,,,,,7932,2022-04-06_20h06.40.717,ImplicitInfinitySC-FASTTASK,2021.2.3,Win32,60.11421701,,,,space,0.4172,,,,,,,,,f,1,,0,14,14,89,1,A square is a shape,f,1.1596,,,
,,,,,,,,7932,2022-04-06_20h06.40.717,ImplicitInfinitySC-FASTTASK,2021.2.3,Win32,60.11421701,,,,space,0.3588,,,,,,,,,j,1,,0,15,15,82,1,Stones reproduce,j,0.983,,,
,,,,,,,,7932,2022-04-06_20h06.40.717,ImplicitInfinitySC-FASTTASK,2021.2.3,Win32,60.11421701,,,,space,0.319,,,,,,,,,j,1,,0,16,16,13,1,An inch can go on forever,j,1.6,,,
,,,,,,,,7932,2022-04-06_20h06.40.717,ImplicitInfinitySC-FASTTASK,2021.2.3,Win32,60.11421701,,,,space,0.3883,,,,,,,,,f,1,,0,17,17,51,1,Tigers reproduce,f,0.8967,,,
,,,,,,,,7932,2022-04-06_20h06.40.717,ImplicitInfinitySC-FASTTASK,2021.2.3,Win32,60.11421701,,,,space,0.4932,,,,,,,,,f,1,,0,18,18,70,1,Grass needs nutrients,f,1.3642,,,
,,,,,,,,7932,2022-04-06_20h06.40.717,ImplicitInfinitySC-FASTTASK,2021.2.3,Win32,60.11421701,,,,space,2.58,,,,,,,,,j,1,,0,19,19,80,1,Mittens need nutrients,j,1.5364,,,
,,,,,,,,7932,2022-04-06_20h06.40.717,ImplicitInfinitySC-FASTTASK,2021.2.3,Win32,60.11421701,,,,space,0.4004,,,,,,,,,j,0,,0,20,20,0,1,A minute is finite,f,1.1632,,,
,,,,,,,,7932,2022-04-06_20h06.40.717,ImplicitInfinitySC-FASTTASK,2021.2.3,Win32,60.11421701,,,,space,0.5554,,,,,,,,,j,1,,0,21,21,34,1,Numbers have an end,j,1.7301,,,
,,,,,,,,7932,2022-04-06_20h06.40.717,ImplicitInfinitySC-FASTTASK,2021.2.3,Win32,60.11421701,,,,space,0.4799,,,,,,,,,f,1,,0,22,22,54,1,Dumbells are composed of matter,f,1.5504,,,
,,,,,,,,7932,2022-04-06_20h06.40.717,ImplicitInfinitySC-FASTTASK,2021.2.3,Win32,60.11421701,,,,space,0.4168,,,,,,,,,j,0,,0,23,23,31,1,Space can always be further divided,f,2.473,,,
,,,,,,,,7932,2022-04-06_20h06.40.717,ImplicitInfinitySC-FASTTASK,2021.2.3,Win32,60.11421701,,,,space,1.0468,,,,,,,,,f,1,,0,24,24,21,1,Time can go on forever,f,2.3162,,,
,,,,,,,,7932,2022-04-06_20h06.40.717,ImplicitInfinitySC-FASTTASK,2021.2.3,Win32,60.11421701,,,,space,0.4543,,,,,,,,,f,1,,0,25,25,33,1,Numbers are infinite,f,1.3159,,,
,,,,,,,,7932,2022-04-06_20h06.40.717,ImplicitInfinitySC-FASTTASK,2021.2.3,Win32,60.11421701,,,,space,0.5632,,,,,,,,,f,1,,0,26,26,25,1,Space is infinite,f,2.2031,,,
,,,,,,,,7932,2022-04-06_20h06.40.717,ImplicitInfinitySC-FASTTASK,2021.2.3,Win32,60.11421701,,,,space,0.3006,,,,,,,,,j,1,,0,27,27,58,1,Clocks are alive,j,0.9801,,,
,,,,,,,,7932,2022-04-06_20h06.40.717,ImplicitInfinitySC-FASTTASK,2021.2.3,Win32,60.11421701,,,,space,0.1996,,,,,,,,,j,1,,0,28,28,84,1,Silence is composed of matter,j,1.3497,,,
,,,,,,,,7932,2022-04-06_20h06.40.717,ImplicitInfinitySC-FASTTASK,2021.2.3,Win32,60.11421701,,,,space,0.2299,,,,,,,,,j,1,,0,29,29,67,1,Gravity has a molecular structure,j,1.238,,,
,,,,,,,,7932,2022-04-06_20h06.40.717,ImplicitInfinitySC-FASTTASK,2021.2.3,Win32,60.11421701,,,,space,0.2549,,,,,,,,,j,1,,0,30,30,117,1,Dolphins cannot swim in the ocean,j,1.4666,,,
,,,,,,,,7932,2022-04-06_20h06.40.717,ImplicitInfinitySC-FASTTASK,2021.2.3,Win32,60.11421701,,,,space,0.3054,,,,,,,,,f,1,,0,31,31,29,1,Space can go on forever,f,1.4354,,,
,,,,,,,,7932,2022-04-06_20h06.40.717,ImplicitInfinitySC-FASTTASK,2021.2.3,Win32,60.11421701,,,,space,0.4542,,,,,,,,,j,1,,0,32,32,20,1,Time cannot go on forever,j,2.5325,,,
,,,,,,,,7932,2022-04-06_20h06.40.717,ImplicitInfinitySC-FASTTASK,2021.2.3,Win32,60.11421701,,,,space,0.4172,,,,,,,,,j,1,,0,33,33,41,1,The number five is infinite,j,1.5227,,,
,,,,,,,,7932,2022-04-06_20h06.40.717,ImplicitInfinitySC-FASTTASK,2021.2.3,Win32,60.11421701,,,,space,0.2309,,,,,,,,,j,1,,0,34,34,18,1,Time has an end,j,1.3074,,,
,,,,,,,,7932,2022-04-06_20h06.40.717,ImplicitInfinitySC-FASTTASK,2021.2.3,Win32,60.11421701,,,,space,0.3559,,,,,,,,,f,1,,0,35,35,12,1,An inch cannot go on forever,f,2.0048,,,
,,,,,,,,7932,2022-04-06_20h06.40.717,ImplicitInfinitySC-FASTTASK,2021.2.3,Win32,60.11421701,,,,space,0.2838,,,,,,,,,j,1,,0,36,36,43,1,The number five is endless,j,1.4134,,,
,,,,,,,,7932,2022-04-06_20h06.40.717,ImplicitInfinitySC-FASTTASK,2021.2.3,Win32,60.11421701,,,,space,0.3356,,,,,,,,,j,1,,0,37,37,116,1,Fish cannot swim in the ocean,j,1.3672,,,
,,,,,,,,7932,2022-04-06_20h06.40.717,ImplicitInfinitySC-FASTTASK,2021.2.3,Win32,60.11421701,,,,space,0.3415,,,,,,,,,j,1,,0,38,38,30,1,Space cannot always be further divided,j,2.4652,,,
,,,,,,,,7932,2022-04-06_20h06.40.717,ImplicitInfinitySC-FASTTASK,2021.2.3,Win32,60.11421701,,,,space,0.3472,,,,,,,,,f,1,,0,39,39,44,1,The number five cannot go on forever,f,1.9193,,,
,,,,,,,,7932,2022-04-06_20h06.40.717,ImplicitInfinitySC-FASTTASK,2021.2.3,Win32,60.11421701,,,,space,0.8543,,,,,,,,,f,1,space,0,40,40,15,1,An inch can be always further divided,f,3.1479,0.9606,,
,,,,,,,,7932,2022-04-06_20h06.40.717,ImplicitInfinitySC-FASTTASK,2021.2.3,Win32,60.11421701,,,,space,0.6133,,,,,,,,,j,1,,0,41,41,6,1,A minute cannot always be further divided,j,2.5224,,,
,,,,,,,,7932,2022-04-06_20h06.40.717,ImplicitInfinitySC-FASTTASK,2021.2.3,Win32,60.11421701,,,,space,0.6004,,,,,,,,,f,1,,0,42,42,40,1,The number five is finite,f,1.7704,,,
,,,,,,,,7932,2022-04-06_20h06.40.717,ImplicitInfinitySC-FASTTASK,2021.2.3,Win32,60.11421701,,,,space,0.5803,,,,,,,,,f,1,,0,43,43,50,1,Turtles need nutrients,f,1.3934,,,
,,,,,,,,7932,2022-04-06_20h06.40.717,ImplicitInfinitySC-FASTTASK,2021.2.3,Win32,60.11421701,,,,space,0.5508,,,,,,,,,f,1,,0,44,44,107,1,A pencil is used to write,f,1.2409,,,
,,,,,,,,7932,2022-04-06_20h06.40.717,ImplicitInfinitySC-FASTTASK,2021.2.3,Win32,60.11421701,,,,space,0.5492,,,,,,,,,j,1,,0,45,45,120,1,A truck is an animal,j,1.0479,,,
,,,,,,,,7932,2022-04-06_20h06.40.717,ImplicitInfinitySC-FASTTASK,2021.2.3,Win32,60.11421701,,,,space,0.5475,,,,,,,,,j,1,,0,46,46,60,1,Robots need nutrients,j,1.4375,,,
,,,,,,,,7932,2022-04-06_20h06.40.717,ImplicitInfinitySC-FASTTASK,2021.2.3,Win32,60.11421701,,,,space,0.7057,,,,,,,,,j,1,,0,47,47,38,1,Numbers cannot always be further divided,j,2.852,,,
,,,,,,,,7932,2022-04-06_20h06.40.717,ImplicitInfinitySC-FASTTASK,2021.2.3,Win32,60.11421701,,,,space,0.4503,,,,,,,,,j,1,,0,48,48,66,1,Music has a molecular structure,j,1.4139,,,
,,,,,,,,7932,2022-04-06_20h06.40.717,ImplicitInfinitySC-FASTTASK,2021.2.3,Win32,60.11421701,,,,space,0.3671,,,,,,,,,j,1,,0,49,49,65,1,Shadows are composed of matter,j,1.4166,,,
,,,,,,,,7932,2022-04-06_20h06.40.717,ImplicitInfinitySC-FASTTASK,2021.2.3,Win32,60.11421701,,,,space,0.447,,,,,,,,,j,1,,0,50,50,121,1,Jupiter is the planet we live on,j,1.5829,,,
,,,,,,,,7932,2022-04-06_20h06.40.717,ImplicitInfinitySC-FASTTASK,2021.2.3,Win32,60.11421701,,,,space,0.4203,,,,,,,,,f,1,,0,51,51,76,1,Pollen has a molecular structure,f,1.3672,,,
,,,,,,,,7932,2022-04-06_20h06.40.717,ImplicitInfinitySC-FASTTASK,2021.2.3,Win32,60.11421701,,,,space,0.3635,,,,,,,,,j,1,,0,52,52,87,1,Dreams have a molecular structure,j,1.3797,,,
,,,,,,,,7932,2022-04-06_20h06.40.717,ImplicitInfinitySC-FASTTASK,2021.2.3,Win32,60.11421701,,,,space,0.3475,,,,,,,,,j,1,,0,53,53,3,1,A minute is endless,j,1.1545,,,
,,,,,,,,7932,2022-04-06_20h06.40.717,ImplicitInfinitySC-FASTTASK,2021.2.3,Win32,60.11421701,,,,space,0.4131,,,,,,,,,f,1,,0,54,54,77,1,Saliva has a molecular structure,f,1.4203,,,
,,,,,,,,7932,2022-04-06_20h06.40.717,ImplicitInfinitySC-FASTTASK,2021.2.3,Win32,60.11421701,,,,space,0.388,,,,,,,,,j,1,,0,55,55,112,1,Dinosaurs are not extinct,j,1.3216,,,
,,,,,,,,7932,2022-04-06_20h06.40.717,ImplicitInfinitySC-FASTTASK,2021.2.3,Win32,60.11421701,,,,space,0.4339,,,,,,,,,j,1,,0,56,56,124,1,The president of the United States is Oprah,j,1.2463,,,
,,,,,,,,7932,2022-04-06_20h06.40.717,ImplicitInfinitySC-FASTTASK,2021.2.3,Win32,60.11421701,,,,space,0.3066,,,,,,,,,j,1,,0,57,57,11,1,An inch is endless,j,1.3184,,,
,,,,,,,,7932,2022-04-06_20h06.40.717,ImplicitInfinitySC-FASTTASK,2021.2.3,Win32,60.11421701,,,,space,0.3672,,,,,,,,,j,1,,0,58,58,109,1,A square is a color,j,1.3336,,,
,,,,,,,,7932,2022-04-06_20h06.40.717,ImplicitInfinitySC-FASTTASK,2021.2.3,Win32,60.11421701,,,,space,0.3837,,,,,,,,,j,1,,0,59,59,122,1,The Earth is a star,j,1.2219,,,
,,,,,,,,7932,2022-04-06_20h06.40.717,ImplicitInfinitySC-FASTTASK,2021.2.3,Win32,60.11421701,,,,space,0.4225,,,,,,,,,f,1,,0,60,60,103,1,The United States is a country,f,1.3004,,,
,,,,,,,,7932,2022-04-06_20h06.40.717,ImplicitInfinitySC-FASTTASK,2021.2.3,Win32,60.11421701,,,,space,0.4506,,,,,,,,,f,1,,0,61,61,47,1,The number five can always be further divided,f,2.0502,,,
,,,,,,,,7932,2022-04-06_20h06.40.717,ImplicitInfinitySC-FASTTASK,2021.2.3,Win32,60.11421701,,,,space,0.4121,,,,,,,,,j,1,,0,62,62,62,1,Helicopters reproduce,j,1.4218,,,
,,,,,,,,7932,2022-04-06_20h06.40.717,ImplicitInfinitySC-FASTTASK,2021.2.3,Win32,60.11421701,,,,space,0.4586,,,,,,,,,j,0,,0,63,63,42,1,The number five has an end,f,2.3669,,,
,,,,,,,,7932,2022-04-06_20h06.40.717,ImplicitInfinitySC-FASTTASK,2021.2.3,Win32,60.11421701,,,,space,0.2841,,,,,,,,,j,1,,0,64,64,9,1,An inch is infinite,j,1.2795,,,
,,,,,,,,7932,2022-04-06_20h06.40.717,ImplicitInfinitySC-FASTTASK,2021.2.3,Win32,60.11421701,,,,space,0.2692,,,,,,,,,j,1,,0,65,65,16,1,Time is finite,j,1.2228,,,
,,,,,,,,7932,2022-04-06_20h06.40.717,ImplicitInfinitySC-FASTTASK,2021.2.3,Win32,60.11421701,,,,space,0.3919,,,,,,,,,f,1,,0,66,66,69,1,Bacteria are alive,f,1.1839,,,
,,,,,,,,7932,2022-04-06_20h06.40.717,ImplicitInfinitySC-FASTTASK,2021.2.3,Win32,60.11421701,,,,space,0.42,,,,,,,,,f,1,,0,67,67,105,1,There are fifty states in the United States,f,1.2633,,,
,,,,,,,,7932,2022-04-06_20h06.40.717,ImplicitInfinitySC-FASTTASK,2021.2.3,Win32,60.11421701,,,,space,0.5785,,,,,,,,,j,0,,0,68,68,102,1,The Earth is a planet,f,1.1532,,,
,,,,,,,,7932,2022-04-06_20h06.40.717,ImplicitInfinitySC-FASTTASK,2021.2.3,Win32,60.11421701,,,,space,0.377,,,,,,,,,f,1,,0,69,69,8,1,An inch is finite,f,1.4169,,,
,,,,,,,,7932,2022-04-06_20h06.40.717,ImplicitInfinitySC-FASTTASK,2021.2.3,Win32,60.11421701,,,,space,0.4505,,,,,,,,,f,1,,0,70,70,57,1,Rocks have a molecular structure,f,1.5165,,,
,,,,,,,,7932,2022-04-06_20h06.40.717,ImplicitInfinitySC-FASTTASK,2021.2.3,Win32,60.11421701,,,,space,0.3356,,,,,,,,,j,1,,0,71,71,115,1,Yellow is an animal,j,0.9753,,,
,,,,,,,,7932,2022-04-06_20h06.40.717,ImplicitInfinitySC-FASTTASK,2021.2.3,Win32,60.11421701,,,,space,0.3338,,,,,,,,,f,1,,0,72,72,100,1,A truck is a vehicle,f,1.0831,,,
,,,,,,,,7932,2022-04-06_20h06.40.717,ImplicitInfinitySC-FASTTASK,2021.2.3,Win32,60.11421701,,,,space,0.3173,,,,,,,,,j,1,,0,73,73,45,1,The number five can go on forever,j,1.2046,,,
,,,,,,,,7932,2022-04-06_20h06.40.717,ImplicitInfinitySC-FASTTASK,2021.2.3,Win32,60.11421701,,,,space,0.3024,,,,,,,,,j,1,,0,74,74,24,1,Space is finite,j,1.367,,,
,,,,,,,,7932,2022-04-06_20h06.40.717,ImplicitInfinitySC-FASTTASK,2021.2.3,Win32,60.11421701,,,,space,0.3515,,,,,,,,,f,1,,0,75,75,93,1,Magenta is a color,f,1.0003,,,
,,,,,,,,7932,2022-04-06_20h06.40.717,ImplicitInfinitySC-FASTTASK,2021.2.3,Win32,60.11421701,,,,space,0.3444,,,,,,,,,f,1,,0,76,76,39,1,Numbers can always be further divided,f,1.7354,,,
,,,,,,,,7932,2022-04-06_20h06.40.717,ImplicitInfinitySC-FASTTASK,2021.2.3,Win32,60.11421701,,,,space,0.4172,,,,,,,,,f,1,,0,77,77,4,1,A minute cannot go on forever,f,1.8336,,,
,,,,,,,,7932,2022-04-06_20h06.40.717,ImplicitInfinitySC-FASTTASK,2021.2.3,Win32,60.11421701,,,,space,0.5665,,,,,,,,,f,1,,0,78,78,97,1,Dolphins can swim in the ocean,f,1.3839,,,
,,,,,,,,7932,2022-04-06_20h06.40.717,ImplicitInfinitySC-FASTTASK,2021.2.3,Win32,60.11421701,,,,space,0.4219,,,,,,,,,f,1,,0,79,79,10,1,An inch has an end,f,1.7337,,,
,,,,,,,,7932,2022-04-06_20h06.40.717,ImplicitInfinitySC-FASTTASK,2021.2.3,Win32,60.11421701,,,,space,0.3339,,,,,,,,,j,1,,0,80,80,32,1,Numbers are finite,j,2.1339,,,
,,,,,,,,7932,2022-04-06_20h06.40.717,ImplicitInfinitySC-FASTTASK,2021.2.3,Win32,60.11421701,,,,,,,,,,,,,,,,,,,,,,,,,,space,25.7477
