INSTRESP.keys,INSTRESP.rt,Instrloop.thisRepN,Instrloop.thisTrialN,Instrloop.thisN,Instrloop.thisIndex,Instrloop.ran,FastInstructions,participant,date,expName,psychopyVersion,OS,frameRate,key_resp_2.keys,key_resp_2.corr,Advance_Resp.keys,Advance_Resp.rt,Practice.thisRepN,Practice.thisTrialN,Practice.thisN,Practice.thisIndex,Practice.ran,practicetext,practicecorrect,key_resp_2.rt,key_resp_3.keys,key_resp_3.rt,key_resp.keys,key_resp.corr,key_resp.rt,encouragekey.keys,FastLoop.thisRepN,FastLoop.thisTrialN,FastLoop.thisN,FastLoop.thisIndex,FastLoop.ran,Statement,Correct,encouragekey.rt,endstudykey.keys,endstudykey.rt
space,6.8931,0,0,0,0,1,"You will be shown a total of 80 statements pertaining to mathematics, science, and social concepts. Your task is to determine whether each statement is true or false as quickly as possible without sacrificing accuracy. Some statements will be difficult and some will be easier.  We do not expect you to know the correct answer for all 80 statements.  Press SPACE to Continue",8032,2022-04-06_19h00.13.690,ImplicitInfinitySC-FASTTASK,2021.2.3,Win32,58.99008966,,,,,,,,,,,,,,,,,,,,,,,,,,,,
space,7.4909,0,1,1,1,1,"Each statement will appear on your screen for up to 4 seconds and you will have those 4 seconds to decide if it is true or false before the next statement appears. There will be a beep to inform you that you have 2.5 seconds remaining. Please make sure the sound on your computer is turned on. If you do not respond, that answer will be considered incorrect and the task will move on to the next statement. Press SPACE to continue",8032,2022-04-06_19h00.13.690,ImplicitInfinitySC-FASTTASK,2021.2.3,Win32,58.99008966,,,,,,,,,,,,,,,,,,,,,,,,,,,,
space,7.0161,0,2,2,2,1,"If the statement is true, you will press the “F” key on your keyboard with your left pointer finger; if the statement is false, you will press the “J” key on your keyboard with your right pointer finger. Press SPACE to continue",8032,2022-04-06_19h00.13.690,ImplicitInfinitySC-FASTTASK,2021.2.3,Win32,58.99008966,,,,,,,,,,,,,,,,,,,,,,,,,,,,
space,3.5918,0,3,3,3,1,"Prior to completing the study, you will complete 10 practice trials to familiarize yourself with the task. Your performance on these trials will determine your participation in the following study. Press SPACE to continue.",8032,2022-04-06_19h00.13.690,ImplicitInfinitySC-FASTTASK,2021.2.3,Win32,58.99008966,,,,,,,,,,,,,,,,,,,,,,,,,,,,
space,5.0402,0,4,4,4,1,"If the statement is true, press the “F” key on your keyboard with your left pointer finger; if the statement is false, press the “J” key on your keyboard with your right pointer finger. Press SPACE to continue",8032,2022-04-06_19h00.13.690,ImplicitInfinitySC-FASTTASK,2021.2.3,Win32,58.99008966,,,,,,,,,,,,,,,,,,,,,,,,,,,,
,,,,,,,,8032,2022-04-06_19h00.13.690,ImplicitInfinitySC-FASTTASK,2021.2.3,Win32,58.99008966,,0,space,7.3113,0,0,0,7,1,The Earth is a star,j,,,,,,,,,,,,,,,,,
,,,,,,,,8032,2022-04-06_19h00.13.690,ImplicitInfinitySC-FASTTASK,2021.2.3,Win32,58.99008966,j,1,space,1.0861,0,1,1,6,1,Jupiter is the planet we live on,j,1.3911,,,,,,,,,,,,,,,,
,,,,,,,,8032,2022-04-06_19h00.13.690,ImplicitInfinitySC-FASTTASK,2021.2.3,Win32,58.99008966,j,1,space,0.8174,0,2,2,8,1,Mississippi is a country,j,1.7597,,,,,,,,,,,,,,,,
,,,,,,,,8032,2022-04-06_19h00.13.690,ImplicitInfinitySC-FASTTASK,2021.2.3,Win32,58.99008966,f,1,space,3.7376,0,3,3,0,1,A circle is a shape,f,1.7003,,,,,,,,,,,,,,,,
,,,,,,,,8032,2022-04-06_19h00.13.690,ImplicitInfinitySC-FASTTASK,2021.2.3,Win32,58.99008966,j,0,space,1.0537,0,4,4,4,1,Humans cannot breathe water,f,1.1537,,,,,,,,,,,,,,,,
,,,,,,,,8032,2022-04-06_19h00.13.690,ImplicitInfinitySC-FASTTASK,2021.2.3,Win32,58.99008966,f,1,space,0.6518,0,5,5,3,1,A clock is used to tell time,f,1.2369,,,,,,,,,,,,,,,,
,,,,,,,,8032,2022-04-06_19h00.13.690,ImplicitInfinitySC-FASTTASK,2021.2.3,Win32,58.99008966,f,1,space,0.5842,0,6,6,2,1,Magenta is a color,f,1.2319,,,,,,,,,,,,,,,,
,,,,,,,,8032,2022-04-06_19h00.13.690,ImplicitInfinitySC-FASTTASK,2021.2.3,Win32,58.99008966,j,0,space,0.7732,0,7,7,1,1,Dinosaurs are extinct,f,1.3125,,,,,,,,,,,,,,,,
,,,,,,,,8032,2022-04-06_19h00.13.690,ImplicitInfinitySC-FASTTASK,2021.2.3,Win32,58.99008966,j,1,space,0.6187,0,8,8,9,1,Humans cannot eat food,j,1.3511,,,,,,,,,,,,,,,,
,,,,,,,,8032,2022-04-06_19h00.13.690,ImplicitInfinitySC-FASTTASK,2021.2.3,Win32,58.99008966,j,1,space,0.5362,0,9,9,5,1,A truck is an animal,j,1.3997,,,,,,,,,,,,,,,,
,,,,,,,,8032,2022-04-06_19h00.13.690,ImplicitInfinitySC-FASTTASK,2021.2.3,Win32,58.99008966,,,space,0.5451,,,,,,,,,space,0.555,f,1,1.232,,0,0,0,29,1,Space can go on forever,f,,,
,,,,,,,,8032,2022-04-06_19h00.13.690,ImplicitInfinitySC-FASTTASK,2021.2.3,Win32,58.99008966,,,space,0.6705,,,,,,,,,,,j,1,1.2903,,0,1,1,63,1,Color can be put in a container,j,,,
,,,,,,,,8032,2022-04-06_19h00.13.690,ImplicitInfinitySC-FASTTASK,2021.2.3,Win32,58.99008966,,,space,0.5006,,,,,,,,,,,j,0,1.6294,,0,2,2,73,1,Bubbles can be put in a container,f,,,
,,,,,,,,8032,2022-04-06_19h00.13.690,ImplicitInfinitySC-FASTTASK,2021.2.3,Win32,58.99008966,,,space,0.4355,,,,,,,,,,,j,1,1.3176,,0,3,3,11,1,An inch is endless,j,,,
,,,,,,,,8032,2022-04-06_19h00.13.690,ImplicitInfinitySC-FASTTASK,2021.2.3,Win32,58.99008966,,,space,0.4519,,,,,,,,,,,f,1,0.9531,,0,4,4,95,1,Yellow is a color,f,,,
,,,,,,,,8032,2022-04-06_19h00.13.690,ImplicitInfinitySC-FASTTASK,2021.2.3,Win32,58.99008966,,,space,0.4413,,,,,,,,,,,f,1,1.4445,,0,5,5,106,1,Humans cannot breathe water,f,,,
,,,,,,,,8032,2022-04-06_19h00.13.690,ImplicitInfinitySC-FASTTASK,2021.2.3,Win32,58.99008966,,,space,0.4702,,,,,,,,,,,j,1,1.1456,,0,6,6,108,1,This sentence is written in Spanish,j,,,
,,,,,,,,8032,2022-04-06_19h00.13.690,ImplicitInfinitySC-FASTTASK,2021.2.3,Win32,58.99008966,,,space,0.4575,,,,,,,,,,,j,0,1.2631,,0,7,7,4,1,A minute cannot go on forever,f,,,
,,,,,,,,8032,2022-04-06_19h00.13.690,ImplicitInfinitySC-FASTTASK,2021.2.3,Win32,58.99008966,,,space,0.4181,,,,,,,,,,,j,1,1.0799,,0,8,8,114,1,Lightbulbs are made of clay,j,,,
,,,,,,,,8032,2022-04-06_19h00.13.690,ImplicitInfinitySC-FASTTASK,2021.2.3,Win32,58.99008966,,,space,0.5085,,,,,,,,,,,j,0,1.1417,,0,9,9,44,1,The number five cannot go on forever,f,,,
,,,,,,,,8032,2022-04-06_19h00.13.690,ImplicitInfinitySC-FASTTASK,2021.2.3,Win32,58.99008966,,,space,0.5201,,,,,,,,,,,j,1,1.5217,,0,10,10,65,1,Shadows are composed of matter,j,,,
,,,,,,,,8032,2022-04-06_19h00.13.690,ImplicitInfinitySC-FASTTASK,2021.2.3,Win32,58.99008966,,,space,0.4941,,,,,,,,,,,f,1,1.1819,,0,11,11,103,1,The United States is a country,f,,,
,,,,,,,,8032,2022-04-06_19h00.13.690,ImplicitInfinitySC-FASTTASK,2021.2.3,Win32,58.99008966,,,space,0.474,,,,,,,,,,,f,1,1.6445,,0,12,12,15,1,An inch can be always further divided,f,,,
,,,,,,,,8032,2022-04-06_19h00.13.690,ImplicitInfinitySC-FASTTASK,2021.2.3,Win32,58.99008966,,,space,0.4556,,,,,,,,,,,j,1,1.2477,,0,13,13,127,1,A zebra is used to write,j,,,
,,,,,,,,8032,2022-04-06_19h00.13.690,ImplicitInfinitySC-FASTTASK,2021.2.3,Win32,58.99008966,,,space,0.4513,,,,,,,,,,,j,1,0.999,,0,14,14,82,1,Stones reproduce,j,,,
,,,,,,,,8032,2022-04-06_19h00.13.690,ImplicitInfinitySC-FASTTASK,2021.2.3,Win32,58.99008966,,,space,0.5519,,,,,,,,,,,j,0,1.2028,,0,15,15,56,1,Diamonds have a molecular structure,f,,,
,,,,,,,,8032,2022-04-06_19h00.13.690,ImplicitInfinitySC-FASTTASK,2021.2.3,Win32,58.99008966,,,space,0.4395,,,,,,,,,,,j,1,1.306,,0,16,16,14,1,An inch cannot always be further divided,j,,,
,,,,,,,,8032,2022-04-06_19h00.13.690,ImplicitInfinitySC-FASTTASK,2021.2.3,Win32,58.99008966,,,space,0.4517,,,,,,,,,,,f,1,1.0121,,0,17,17,68,1,Algae is alive,f,,,
,,,,,,,,8032,2022-04-06_19h00.13.690,ImplicitInfinitySC-FASTTASK,2021.2.3,Win32,58.99008966,,,space,0.4391,,,,,,,,,,,f,1,0.8194,,0,18,18,93,1,Magenta is a color,f,,,
,,,,,,,,8032,2022-04-06_19h00.13.690,ImplicitInfinitySC-FASTTASK,2021.2.3,Win32,58.99008966,,,space,0.4618,,,,,,,,,,,f,0,1.0516,,0,19,19,38,1,Numbers cannot always be further divided,j,,,
,,,,,,,,8032,2022-04-06_19h00.13.690,ImplicitInfinitySC-FASTTASK,2021.2.3,Win32,58.99008966,,,space,0.4834,,,,,,,,,,,j,1,1.4595,,0,20,20,67,1,Gravity has a molecular structure,j,,,
,,,,,,,,8032,2022-04-06_19h00.13.690,ImplicitInfinitySC-FASTTASK,2021.2.3,Win32,58.99008966,,,space,0.4236,,,,,,,,,,,j,1,1.1624,,0,21,21,43,1,The number five is endless,j,,,
,,,,,,,,8032,2022-04-06_19h00.13.690,ImplicitInfinitySC-FASTTASK,2021.2.3,Win32,58.99008966,,,space,0.4039,,,,,,,,,,,f,1,1.1083,,0,22,22,52,1,Frogs reproduce,f,,,
,,,,,,,,8032,2022-04-06_19h00.13.690,ImplicitInfinitySC-FASTTASK,2021.2.3,Win32,58.99008966,,,space,0.4246,,,,,,,,,,,j,0,1.2072,,0,23,23,31,1,Space can always be further divided,f,,,
,,,,,,,,8032,2022-04-06_19h00.13.690,ImplicitInfinitySC-FASTTASK,2021.2.3,Win32,58.99008966,,,space,0.4061,,,,,,,,,,,f,1,1.1155,,0,24,24,21,1,Time can go on forever,f,,,
,,,,,,,,8032,2022-04-06_19h00.13.690,ImplicitInfinitySC-FASTTASK,2021.2.3,Win32,58.99008966,,,space,0.4187,,,,,,,,,,,j,1,1.0113,,0,25,25,113,1,Magenta is a shape,j,,,
,,,,,,,,8032,2022-04-06_19h00.13.690,ImplicitInfinitySC-FASTTASK,2021.2.3,Win32,58.99008966,,,space,0.4714,,,,,,,,,,,j,0,1.1161,,0,26,26,72,1,Mushrooms reproduce,f,,,
,,,,,,,,8032,2022-04-06_19h00.13.690,ImplicitInfinitySC-FASTTASK,2021.2.3,Win32,58.99008966,,,space,0.4436,,,,,,,,,,,f,1,1.0091,,0,27,27,89,1,A square is a shape,f,,,
,,,,,,,,8032,2022-04-06_19h00.13.690,ImplicitInfinitySC-FASTTASK,2021.2.3,Win32,58.99008966,,,space,0.4488,,,,,,,,,,,j,1,1.1983,,0,28,28,28,1,Space cannot go on forever,j,,,
,,,,,,,,8032,2022-04-06_19h00.13.690,ImplicitInfinitySC-FASTTASK,2021.2.3,Win32,58.99008966,,,space,0.5009,,,,,,,,,,,j,0,1.2585,,0,29,29,10,1,An inch has an end,f,,,
,,,,,,,,8032,2022-04-06_19h00.13.690,ImplicitInfinitySC-FASTTASK,2021.2.3,Win32,58.99008966,,,space,0.4501,,,,,,,,,,,f,1,1.3493,,0,30,30,7,1,A minute can always be further divided,f,,,
,,,,,,,,8032,2022-04-06_19h00.13.690,ImplicitInfinitySC-FASTTASK,2021.2.3,Win32,58.99008966,,,space,0.4032,,,,,,,,,,,j,1,1.0047,,0,31,31,116,1,Fish cannot swim in the ocean,j,,,
,,,,,,,,8032,2022-04-06_19h00.13.690,ImplicitInfinitySC-FASTTASK,2021.2.3,Win32,58.99008966,,,space,0.459,,,,,,,,,,,j,1,1.357,,0,32,32,34,1,Numbers have an end,j,,,
,,,,,,,,8032,2022-04-06_19h00.13.690,ImplicitInfinitySC-FASTTASK,2021.2.3,Win32,58.99008966,,,space,0.4852,,,,,,,,,,,f,1,1.2969,,0,33,33,47,1,The number five can always be further divided,f,,,
,,,,,,,,8032,2022-04-06_19h00.13.690,ImplicitInfinitySC-FASTTASK,2021.2.3,Win32,58.99008966,,,space,0.4211,,,,,,,,,,,j,1,1.1161,,0,34,34,85,1,Thoughts are composed of matter,j,,,
,,,,,,,,8032,2022-04-06_19h00.13.690,ImplicitInfinitySC-FASTTASK,2021.2.3,Win32,58.99008966,,,space,0.3991,,,,,,,,,,,f,1,1.0304,,0,35,35,102,1,The Earth is a planet,f,,,
,,,,,,,,8032,2022-04-06_19h00.13.690,ImplicitInfinitySC-FASTTASK,2021.2.3,Win32,58.99008966,,,space,0.3777,,,,,,,,,,,f,1,0.981,,0,36,36,100,1,A truck is a vehicle,f,,,
,,,,,,,,8032,2022-04-06_19h00.13.690,ImplicitInfinitySC-FASTTASK,2021.2.3,Win32,58.99008966,,,space,0.4406,,,,,,,,,,,j,1,1.4474,,0,37,37,83,1,Songs can be put in a container,j,,,
,,,,,,,,8032,2022-04-06_19h00.13.690,ImplicitInfinitySC-FASTTASK,2021.2.3,Win32,58.99008966,,,space,0.441,,,,,,,,,,,f,1,1.097,,0,38,38,96,1,Fish can swim in the ocean,f,,,
,,,,,,,,8032,2022-04-06_19h00.13.690,ImplicitInfinitySC-FASTTASK,2021.2.3,Win32,58.99008966,,,space,0.4179,,,,,,,,,,,j,1,1.1432,,0,39,39,13,1,An inch can go on forever,j,,,
,,,,,,,,8032,2022-04-06_19h00.13.690,ImplicitInfinitySC-FASTTASK,2021.2.3,Win32,58.99008966,,,space,1.143,,,,,,,,,,,f,1,1.1568,space,0,40,40,37,1,Numbers can go on forever,f,2.4051,,
,,,,,,,,8032,2022-04-06_19h00.13.690,ImplicitInfinitySC-FASTTASK,2021.2.3,Win32,58.99008966,,,space,0.3847,,,,,,,,,,,f,1,1.104,,0,41,41,101,1,Jupiter is in our solar system,f,,,
,,,,,,,,8032,2022-04-06_19h00.13.690,ImplicitInfinitySC-FASTTASK,2021.2.3,Win32,58.99008966,,,space,0.4667,,,,,,,,,,,j,1,1.3157,,0,42,42,6,1,A minute cannot always be further divided,j,,,
,,,,,,,,8032,2022-04-06_19h00.13.690,ImplicitInfinitySC-FASTTASK,2021.2.3,Win32,58.99008966,,,space,0.4216,,,,,,,,,,,j,1,1.3783,,0,43,43,45,1,The number five can go on forever,j,,,
,,,,,,,,8032,2022-04-06_19h00.13.690,ImplicitInfinitySC-FASTTASK,2021.2.3,Win32,58.99008966,,,space,0.4051,,,,,,,,,,,f,1,0.9821,,0,44,44,88,1,This sentence is written in English,f,,,
,,,,,,,,8032,2022-04-06_19h00.13.690,ImplicitInfinitySC-FASTTASK,2021.2.3,Win32,58.99008966,,,space,0.4659,,,,,,,,,,,f,1,1.2822,,0,45,45,33,1,Numbers are infinite,f,,,
,,,,,,,,8032,2022-04-06_19h00.13.690,ImplicitInfinitySC-FASTTASK,2021.2.3,Win32,58.99008966,,,space,0.4018,,,,,,,,,,,j,1,1.1184,,0,46,46,126,1,Humans can breathe water,j,,,
,,,,,,,,8032,2022-04-06_19h00.13.690,ImplicitInfinitySC-FASTTASK,2021.2.3,Win32,58.99008966,,,space,0.5161,,,,,,,,,,,f,0,1.3507,,0,47,47,41,1,The number five is infinite,j,,,
,,,,,,,,8032,2022-04-06_19h00.13.690,ImplicitInfinitySC-FASTTASK,2021.2.3,Win32,58.99008966,,,space,0.4035,,,,,,,,,,,j,1,1.0321,,0,48,48,110,1,A triangle is an animal,j,,,
,,,,,,,,8032,2022-04-06_19h00.13.690,ImplicitInfinitySC-FASTTASK,2021.2.3,Win32,58.99008966,,,space,0.3823,,,,,,,,,,,f,1,1.1701,,0,49,49,17,1,Time is infinite,f,,,
,,,,,,,,8032,2022-04-06_19h00.13.690,ImplicitInfinitySC-FASTTASK,2021.2.3,Win32,58.99008966,,,space,0.3884,,,,,,,,,,,j,0,1.2505,,0,50,50,8,1,An inch is finite,f,,,
,,,,,,,,8032,2022-04-06_19h00.13.690,ImplicitInfinitySC-FASTTASK,2021.2.3,Win32,58.99008966,,,space,0.4382,,,,,,,,,,,f,1,0.9767,,0,51,51,91,1,A circle is a shape,f,,,
,,,,,,,,8032,2022-04-06_19h00.13.690,ImplicitInfinitySC-FASTTASK,2021.2.3,Win32,58.99008966,,,space,0.4533,,,,,,,,,,,f,1,1.6653,,0,52,52,2,1,A minute has an end,f,,,
,,,,,,,,8032,2022-04-06_19h00.13.690,ImplicitInfinitySC-FASTTASK,2021.2.3,Win32,58.99008966,,,space,0.4674,,,,,,,,,,,j,1,1.0289,,0,53,53,58,1,Clocks are alive,j,,,
,,,,,,,,8032,2022-04-06_19h00.13.690,ImplicitInfinitySC-FASTTASK,2021.2.3,Win32,58.99008966,,,space,0.4172,,,,,,,,,,,j,1,1.2823,,0,54,54,118,1,A horse is used to tell time,j,,,
,,,,,,,,8032,2022-04-06_19h00.13.690,ImplicitInfinitySC-FASTTASK,2021.2.3,Win32,58.99008966,,,space,0.4506,,,,,,,,,,,j,1,1.1204,,0,55,55,86,1,Words have a molecular structure,j,,,
,,,,,,,,8032,2022-04-06_19h00.13.690,ImplicitInfinitySC-FASTTASK,2021.2.3,Win32,58.99008966,,,space,0.44,,,,,,,,,,,f,1,0.9492,,0,56,56,107,1,A pencil is used to write,f,,,
,,,,,,,,8032,2022-04-06_19h00.13.690,ImplicitInfinitySC-FASTTASK,2021.2.3,Win32,58.99008966,,,space,0.4022,,,,,,,,,,,f,1,1.528,,0,57,57,42,1,The number five has an end,f,,,
,,,,,,,,8032,2022-04-06_19h00.13.690,ImplicitInfinitySC-FASTTASK,2021.2.3,Win32,58.99008966,,,space,0.3711,,,,,,,,,,,f,1,1.0347,,0,58,58,92,1,Dinosaurs are extinct,f,,,
,,,,,,,,8032,2022-04-06_19h00.13.690,ImplicitInfinitySC-FASTTASK,2021.2.3,Win32,58.99008966,,,space,0.4344,,,,,,,,,,,f,1,1.0284,,0,59,59,97,1,Dolphins can swim in the ocean,f,,,
,,,,,,,,8032,2022-04-06_19h00.13.690,ImplicitInfinitySC-FASTTASK,2021.2.3,Win32,58.99008966,,,space,0.4759,,,,,,,,,,,f,1,1.5862,,0,60,60,25,1,Space is infinite,f,,,
,,,,,,,,8032,2022-04-06_19h00.13.690,ImplicitInfinitySC-FASTTASK,2021.2.3,Win32,58.99008966,,,space,0.4837,,,,,,,,,,,j,0,1.5529,,0,61,61,57,1,Rocks have a molecular structure,f,,,
,,,,,,,,8032,2022-04-06_19h00.13.690,ImplicitInfinitySC-FASTTASK,2021.2.3,Win32,58.99008966,,,space,0.4514,,,,,,,,,,,j,1,1.8923,,0,62,62,1,1,A minute is infinite,j,,,
,,,,,,,,8032,2022-04-06_19h00.13.690,ImplicitInfinitySC-FASTTASK,2021.2.3,Win32,58.99008966,,,space,0.4276,,,,,,,,,,,j,1,1.2881,,0,63,63,123,1,Mississippi is a country,j,,,
,,,,,,,,8032,2022-04-06_19h00.13.690,ImplicitInfinitySC-FASTTASK,2021.2.3,Win32,58.99008966,,,space,0.4256,,,,,,,,,,,j,1,1.0323,,0,64,64,20,1,Time cannot go on forever,j,,,
,,,,,,,,8032,2022-04-06_19h00.13.690,ImplicitInfinitySC-FASTTASK,2021.2.3,Win32,58.99008966,,,space,0.5036,,,,,,,,,,,j,1,1.1738,,0,65,65,3,1,A minute is endless,j,,,
,,,,,,,,8032,2022-04-06_19h00.13.690,ImplicitInfinitySC-FASTTASK,2021.2.3,Win32,58.99008966,,,space,0.4048,,,,,,,,,,,j,1,0.9653,,0,66,66,117,1,Dolphins cannot swim in the ocean,j,,,
,,,,,,,,8032,2022-04-06_19h00.13.690,ImplicitInfinitySC-FASTTASK,2021.2.3,Win32,58.99008966,,,space,0.4023,,,,,,,,,,,f,1,1.036,,0,67,67,50,1,Turtles need nutrients,f,,,
,,,,,,,,8032,2022-04-06_19h00.13.690,ImplicitInfinitySC-FASTTASK,2021.2.3,Win32,58.99008966,,,space,0.4114,,,,,,,,,,,j,1,1.0523,,0,68,68,66,1,Music has a molecular structure,j,,,
,,,,,,,,8032,2022-04-06_19h00.13.690,ImplicitInfinitySC-FASTTASK,2021.2.3,Win32,58.99008966,,,space,0.4539,,,,,,,,,,,f,1,1.2539,,0,69,69,53,1,Bricks can be put in a container,f,,,
,,,,,,,,8032,2022-04-06_19h00.13.690,ImplicitInfinitySC-FASTTASK,2021.2.3,Win32,58.99008966,,,space,0.4031,,,,,,,,,,,j,1,0.953,,0,70,70,78,1,Hammers are alive,j,,,
,,,,,,,,8032,2022-04-06_19h00.13.690,ImplicitInfinitySC-FASTTASK,2021.2.3,Win32,58.99008966,,,space,0.4583,,,,,,,,,,,j,1,1.0699,,0,71,71,124,1,The president of the United States is Oprah,j,,,
,,,,,,,,8032,2022-04-06_19h00.13.690,ImplicitInfinitySC-FASTTASK,2021.2.3,Win32,58.99008966,,,space,0.4187,,,,,,,,,,,j,1,1.0468,,0,72,72,81,1,Tables reproduce,j,,,
,,,,,,,,8032,2022-04-06_19h00.13.690,ImplicitInfinitySC-FASTTASK,2021.2.3,Win32,58.99008966,,,space,0.4319,,,,,,,,,,,f,1,0.9746,,0,73,73,27,1,Space is endless,f,,,
,,,,,,,,8032,2022-04-06_19h00.13.690,ImplicitInfinitySC-FASTTASK,2021.2.3,Win32,58.99008966,,,space,0.4328,,,,,,,,,,,j,1,1.0962,,0,74,74,64,1,Echoes are composed of matter,j,,,
,,,,,,,,8032,2022-04-06_19h00.13.690,ImplicitInfinitySC-FASTTASK,2021.2.3,Win32,58.99008966,,,space,0.386,,,,,,,,,,,f,1,1.9186,,0,75,75,74,1,Foam is composed of matter,f,,,
,,,,,,,,8032,2022-04-06_19h00.13.690,ImplicitInfinitySC-FASTTASK,2021.2.3,Win32,58.99008966,,,space,0.4483,,,,,,,,,,,j,1,1.101,,0,76,76,18,1,Time has an end,j,,,
,,,,,,,,8032,2022-04-06_19h00.13.690,ImplicitInfinitySC-FASTTASK,2021.2.3,Win32,58.99008966,,,space,0.4958,,,,,,,,,,,j,0,1.4871,,0,77,77,23,1,Time can always be further divided,f,,,
,,,,,,,,8032,2022-04-06_19h00.13.690,ImplicitInfinitySC-FASTTASK,2021.2.3,Win32,58.99008966,,,space,0.4481,,,,,,,,,,,j,1,1.3655,,0,78,78,36,1,Numbers cannot go on forever,j,,,
,,,,,,,,8032,2022-04-06_19h00.13.690,ImplicitInfinitySC-FASTTASK,2021.2.3,Win32,58.99008966,,,space,0.4381,,,,,,,,,,,j,1,1.1358,,0,79,79,59,1,Comets are alive,j,,,
,,,,,,,,8032,2022-04-06_19h00.13.690,ImplicitInfinitySC-FASTTASK,2021.2.3,Win32,58.99008966,,,space,0.4389,,,,,,,,,,,j,1,0.9968,,0,80,80,111,1,A circle is a flavor,j,,,
,,,,,,,,8032,2022-04-06_19h00.13.690,ImplicitInfinitySC-FASTTASK,2021.2.3,Win32,58.99008966,,,,,,,,,,,,,,,,,,,,,,,,,,,space,15.9025
