INSTRESP.keys,INSTRESP.rt,Instrloop.thisRepN,Instrloop.thisTrialN,Instrloop.thisN,Instrloop.thisIndex,Instrloop.ran,FastInstructions,participant,date,expName,psychopyVersion,OS,frameRate,key_resp_2.keys,key_resp_2.corr,key_resp_2.rt,Advance_Resp.keys,Advance_Resp.rt,Practice.thisRepN,Practice.thisTrialN,Practice.thisN,Practice.thisIndex,Practice.ran,practicetext,practicecorrect,key_resp_3.keys,key_resp.keys,key_resp.corr,key_resp.rt,encouragekey.keys,FastLoop.thisRepN,FastLoop.thisTrialN,FastLoop.thisN,FastLoop.thisIndex,FastLoop.ran,Statement,Correct,encouragekey.rt,endstudykey.keys,endstudykey.rt
space,6.0046,0,0,0,0,1,"You will be shown a total of 80 statements pertaining to mathematics, science, and social concepts. Your task is to determine whether each statement is true or false as quickly as possible without sacrificing accuracy. Some statements will be difficult and some will be easier.  We do not expect you to know the correct answer for all 80 statements.  Press SPACE to Continue",8110,2022-04-06_18h11.02.232,ImplicitInfinitySC-FASTTASK,2021.2.3,Win32,59.89099838,,,,,,,,,,,,,,,,,,,,,,,,,,,
space,3.3027,0,1,1,1,1,"Each statement will appear on your screen for up to 4 seconds and you will have those 4 seconds to decide if it is true or false before the next statement appears. There will be a beep to inform you that you have 2.5 seconds remaining. Please make sure the sound on your computer is turned on. If you do not respond, that answer will be considered incorrect and the task will move on to the next statement. Press SPACE to continue",8110,2022-04-06_18h11.02.232,ImplicitInfinitySC-FASTTASK,2021.2.3,Win32,59.89099838,,,,,,,,,,,,,,,,,,,,,,,,,,,
space,6.4792,0,2,2,2,1,"If the statement is true, you will press the “F” key on your keyboard with your left pointer finger; if the statement is false, you will press the “J” key on your keyboard with your right pointer finger. Press SPACE to continue",8110,2022-04-06_18h11.02.232,ImplicitInfinitySC-FASTTASK,2021.2.3,Win32,59.89099838,,,,,,,,,,,,,,,,,,,,,,,,,,,
space,0.9184,0,3,3,3,1,"Prior to completing the study, you will complete 10 practice trials to familiarize yourself with the task. Your performance on these trials will determine your participation in the following study. Press SPACE to continue.",8110,2022-04-06_18h11.02.232,ImplicitInfinitySC-FASTTASK,2021.2.3,Win32,59.89099838,,,,,,,,,,,,,,,,,,,,,,,,,,,
space,3.4881,0,4,4,4,1,"If the statement is true, press the “F” key on your keyboard with your left pointer finger; if the statement is false, press the “J” key on your keyboard with your right pointer finger. Press SPACE to continue",8110,2022-04-06_18h11.02.232,ImplicitInfinitySC-FASTTASK,2021.2.3,Win32,59.89099838,,,,,,,,,,,,,,,,,,,,,,,,,,,
,,,,,,,,8110,2022-04-06_18h11.02.232,ImplicitInfinitySC-FASTTASK,2021.2.3,Win32,59.89099838,j,1,1.8806,space,5.0386,0,0,0,5,1,A truck is an animal,j,,,,,,,,,,,,,,,
,,,,,,,,8110,2022-04-06_18h11.02.232,ImplicitInfinitySC-FASTTASK,2021.2.3,Win32,59.89099838,j,1,1.7831,space,2.8693,0,1,1,9,1,Humans cannot eat food,j,,,,,,,,,,,,,,,
,,,,,,,,8110,2022-04-06_18h11.02.232,ImplicitInfinitySC-FASTTASK,2021.2.3,Win32,59.89099838,f,0,1.9378,,,0,2,2,7,1,The Earth is a star,j,,,,,,,,,,,,,,,
,,,,,,,,8110,2022-04-06_18h11.02.232,ImplicitInfinitySC-FASTTASK,2021.2.3,Win32,59.89099838,,0,,,,0,3,3,4,1,Humans cannot breathe water,f,,,,,,,,,,,,,,,
,,,,,,,,8110,2022-04-06_18h11.02.232,ImplicitInfinitySC-FASTTASK,2021.2.3,Win32,59.89099838,,0,,space,2.1008,0,4,4,1,1,Dinosaurs are extinct,f,,,,,,,,,,,,,,,
,,,,,,,,8110,2022-04-06_18h11.02.232,ImplicitInfinitySC-FASTTASK,2021.2.3,Win32,59.89099838,f,1,2.2623,space,1.2541,0,5,5,2,1,Magenta is a color,f,,,,,,,,,,,,,,,
,,,,,,,,8110,2022-04-06_18h11.02.232,ImplicitInfinitySC-FASTTASK,2021.2.3,Win32,59.89099838,f,1,2.2813,space,1.0018,0,6,6,3,1,A clock is used to tell time,f,,,,,,,,,,,,,,,
,,,,,,,,8110,2022-04-06_18h11.02.232,ImplicitInfinitySC-FASTTASK,2021.2.3,Win32,59.89099838,f,1,1.4858,space,0.7811,0,7,7,0,1,A circle is a shape,f,,,,,,,,,,,,,,,
,,,,,,,,8110,2022-04-06_18h11.02.232,ImplicitInfinitySC-FASTTASK,2021.2.3,Win32,59.89099838,j,1,1.9648,space,1.3672,0,8,8,6,1,Jupiter is the planet we live on,j,,,,,,,,,,,,,,,
,,,,,,,,8110,2022-04-06_18h11.02.232,ImplicitInfinitySC-FASTTASK,2021.2.3,Win32,59.89099838,j,1,1.4188,space,1.9519,0,9,9,8,1,Mississippi is a country,j,,,,,,,,,,,,,,,
,,,,,,,,8110,2022-04-06_18h11.02.232,ImplicitInfinitySC-FASTTASK,2021.2.3,Win32,59.89099838,,,,space,1.1387,,,,,,,,,j,1,2.1355,,0,0,0,3,1,A minute is endless,j,,,
,,,,,,,,8110,2022-04-06_18h11.02.232,ImplicitInfinitySC-FASTTASK,2021.2.3,Win32,59.89099838,,,,space,1.169,,,,,,,,,f,1,2.2574,,0,1,1,70,1,Grass needs nutrients,f,,,
,,,,,,,,8110,2022-04-06_18h11.02.232,ImplicitInfinitySC-FASTTASK,2021.2.3,Win32,59.89099838,,,,space,1.119,,,,,,,,,j,1,2.0183,,0,2,2,83,1,Songs can be put in a container,j,,,
,,,,,,,,8110,2022-04-06_18h11.02.232,ImplicitInfinitySC-FASTTASK,2021.2.3,Win32,59.89099838,,,,space,1.5712,,,,,,,,,j,0,1.9991,,0,3,3,19,1,Time is endless,f,,,
,,,,,,,,8110,2022-04-06_18h11.02.232,ImplicitInfinitySC-FASTTASK,2021.2.3,Win32,59.89099838,,,,space,1.0034,,,,,,,,,j,0,2.5019,,0,4,4,27,1,Space is endless,f,,,
,,,,,,,,8110,2022-04-06_18h11.02.232,ImplicitInfinitySC-FASTTASK,2021.2.3,Win32,59.89099838,,,,space,0.9691,,,,,,,,,f,0,2.07,,0,5,5,85,1,Thoughts are composed of matter,j,,,
,,,,,,,,8110,2022-04-06_18h11.02.232,ImplicitInfinitySC-FASTTASK,2021.2.3,Win32,59.89099838,,,,space,0.9068,,,,,,,,,j,1,3.0688,,0,6,6,6,1,A minute cannot always be further divided,j,,,
,,,,,,,,8110,2022-04-06_18h11.02.232,ImplicitInfinitySC-FASTTASK,2021.2.3,Win32,59.89099838,,,,space,0.6718,,,,,,,,,j,0,3.0202,,0,7,7,55,1,Concrete is composed of matter,f,,,
,,,,,,,,8110,2022-04-06_18h11.02.232,ImplicitInfinitySC-FASTTASK,2021.2.3,Win32,59.89099838,,,,space,1.7862,,,,,,,,,f,1,2.9003,,0,8,8,68,1,Algae is alive,f,,,
,,,,,,,,8110,2022-04-06_18h11.02.232,ImplicitInfinitySC-FASTTASK,2021.2.3,Win32,59.89099838,,,,space,0.721,,,,,,,,,j,0,2.1516,,0,9,9,40,1,The number five is finite,f,,,
,,,,,,,,8110,2022-04-06_18h11.02.232,ImplicitInfinitySC-FASTTASK,2021.2.3,Win32,59.89099838,,,,space,0.6305,,,,,,,,,j,1,1.231,,0,10,10,121,1,Jupiter is the planet we live on,j,,,
,,,,,,,,8110,2022-04-06_18h11.02.232,ImplicitInfinitySC-FASTTASK,2021.2.3,Win32,59.89099838,,,,space,0.819,,,,,,,,,j,1,2.3104,,0,11,11,38,1,Numbers cannot always be further divided,j,,,
,,,,,,,,8110,2022-04-06_18h11.02.232,ImplicitInfinitySC-FASTTASK,2021.2.3,Win32,59.89099838,,,,space,0.8871,,,,,,,,,j,0,1.6653,,0,12,12,25,1,Space is infinite,f,,,
,,,,,,,,8110,2022-04-06_18h11.02.232,ImplicitInfinitySC-FASTTASK,2021.2.3,Win32,59.89099838,,,,space,0.8363,,,,,,,,,f,1,2.9157,,0,13,13,39,1,Numbers can always be further divided,f,,,
,,,,,,,,8110,2022-04-06_18h11.02.232,ImplicitInfinitySC-FASTTASK,2021.2.3,Win32,59.89099838,,,,space,0.4853,,,,,,,,,j,1,1.7358,,0,14,14,9,1,An inch is infinite,j,,,
,,,,,,,,8110,2022-04-06_18h11.02.232,ImplicitInfinitySC-FASTTASK,2021.2.3,Win32,59.89099838,,,,space,0.6853,,,,,,,,,f,1,1.6774,,0,15,15,104,1,The United States has a president,f,,,
,,,,,,,,8110,2022-04-06_18h11.02.232,ImplicitInfinitySC-FASTTASK,2021.2.3,Win32,59.89099838,,,,space,0.5329,,,,,,,,,f,1,1.0781,,0,16,16,98,1,A clock is used to tell time,f,,,
,,,,,,,,8110,2022-04-06_18h11.02.232,ImplicitInfinitySC-FASTTASK,2021.2.3,Win32,59.89099838,,,,space,1.1977,,,,,,,,,j,1,2.2361,,0,17,17,108,1,This sentence is written in Spanish,j,,,
,,,,,,,,8110,2022-04-06_18h11.02.232,ImplicitInfinitySC-FASTTASK,2021.2.3,Win32,59.89099838,,,,space,0.6122,,,,,,,,,j,1,2.7356,,0,18,18,87,1,Dreams have a molecular structure,j,,,
,,,,,,,,8110,2022-04-06_18h11.02.232,ImplicitInfinitySC-FASTTASK,2021.2.3,Win32,59.89099838,,,,space,0.7843,,,,,,,,,f,0,1.3016,,0,19,19,122,1,The Earth is a star,j,,,
,,,,,,,,8110,2022-04-06_18h11.02.232,ImplicitInfinitySC-FASTTASK,2021.2.3,Win32,59.89099838,,,,space,0.6966,,,,,,,,,f,1,2.7899,,0,20,20,4,1,A minute cannot go on forever,f,,,
,,,,,,,,8110,2022-04-06_18h11.02.232,ImplicitInfinitySC-FASTTASK,2021.2.3,Win32,59.89099838,,,,space,0.5689,,,,,,,,,f,1,1.3411,,0,21,21,107,1,A pencil is used to write,f,,,
,,,,,,,,8110,2022-04-06_18h11.02.232,ImplicitInfinitySC-FASTTASK,2021.2.3,Win32,59.89099838,,,,space,0.6324,,,,,,,,,f,0,1.802,,0,22,22,20,1,Time cannot go on forever,j,,,
,,,,,,,,8110,2022-04-06_18h11.02.232,ImplicitInfinitySC-FASTTASK,2021.2.3,Win32,59.89099838,,,,space,0.7793,,,,,,,,,j,1,1.3342,,0,23,23,119,1,A motorcycle is a person,j,,,
,,,,,,,,8110,2022-04-06_18h11.02.232,ImplicitInfinitySC-FASTTASK,2021.2.3,Win32,59.89099838,,,,space,0.3669,,,,,,,,,j,1,2.1739,,0,24,24,111,1,A circle is a flavor,j,,,
,,,,,,,,8110,2022-04-06_18h11.02.232,ImplicitInfinitySC-FASTTASK,2021.2.3,Win32,59.89099838,,,,space,0.6581,,,,,,,,,j,0,1.7679,,0,25,25,0,1,A minute is finite,f,,,
,,,,,,,,8110,2022-04-06_18h11.02.232,ImplicitInfinitySC-FASTTASK,2021.2.3,Win32,59.89099838,,,,space,0.9036,,,,,,,,,f,1,2.7587,,0,26,26,44,1,The number five cannot go on forever,f,,,
,,,,,,,,8110,2022-04-06_18h11.02.232,ImplicitInfinitySC-FASTTASK,2021.2.3,Win32,59.89099838,,,,space,0.6016,,,,,,,,,f,1,1.8985,,0,27,27,51,1,Tigers reproduce,f,,,
,,,,,,,,8110,2022-04-06_18h11.02.232,ImplicitInfinitySC-FASTTASK,2021.2.3,Win32,59.89099838,,,,space,0.4658,,,,,,,,,j,1,1.1364,,0,28,28,58,1,Clocks are alive,j,,,
,,,,,,,,8110,2022-04-06_18h11.02.232,ImplicitInfinitySC-FASTTASK,2021.2.3,Win32,59.89099838,,,,space,0.5325,,,,,,,,,f,1,1.743,,0,29,29,71,1,Oaks reproduce,f,,,
,,,,,,,,8110,2022-04-06_18h11.02.232,ImplicitInfinitySC-FASTTASK,2021.2.3,Win32,59.89099838,,,,space,0.8059,,,,,,,,,f,0,1.6309,,0,30,30,26,1,Space has an end,j,,,
,,,,,,,,8110,2022-04-06_18h11.02.232,ImplicitInfinitySC-FASTTASK,2021.2.3,Win32,59.89099838,,,,space,0.5047,,,,,,,,,j,1,1.7498,,0,31,31,117,1,Dolphins cannot swim in the ocean,j,,,
,,,,,,,,8110,2022-04-06_18h11.02.232,ImplicitInfinitySC-FASTTASK,2021.2.3,Win32,59.89099838,,,,space,0.3768,,,,,,,,,j,1,1.5075,,0,32,32,61,1,Sailboats reproduce,j,,,
,,,,,,,,8110,2022-04-06_18h11.02.232,ImplicitInfinitySC-FASTTASK,2021.2.3,Win32,59.89099838,,,,space,3.2378,,,,,,,,,j,0,1.4069,,0,33,33,90,1,A triangle is not an animal,f,,,
,,,,,,,,8110,2022-04-06_18h11.02.232,ImplicitInfinitySC-FASTTASK,2021.2.3,Win32,59.89099838,,,,space,0.4847,,,,,,,,,j,1,1.7358,,0,34,34,86,1,Words have a molecular structure,j,,,
,,,,,,,,8110,2022-04-06_18h11.02.232,ImplicitInfinitySC-FASTTASK,2021.2.3,Win32,59.89099838,,,,space,0.2534,,,,,,,,,j,1,1.3241,,0,35,35,60,1,Robots need nutrients,j,,,
,,,,,,,,8110,2022-04-06_18h11.02.232,ImplicitInfinitySC-FASTTASK,2021.2.3,Win32,59.89099838,,,,space,0.1874,,,,,,,,,j,1,1.4014,,0,36,36,45,1,The number five can go on forever,j,,,
,,,,,,,,8110,2022-04-06_18h11.02.232,ImplicitInfinitySC-FASTTASK,2021.2.3,Win32,59.89099838,,,,space,0.1647,,,,,,,,,j,1,1.0668,,0,37,37,62,1,Helicopters reproduce,j,,,
,,,,,,,,8110,2022-04-06_18h11.02.232,ImplicitInfinitySC-FASTTASK,2021.2.3,Win32,59.89099838,,,,space,0.4329,,,,,,,,,f,1,1.7144,,0,38,38,2,1,A minute has an end,f,,,
,,,,,,,,8110,2022-04-06_18h11.02.232,ImplicitInfinitySC-FASTTASK,2021.2.3,Win32,59.89099838,,,,space,0.452,,,,,,,,,f,1,1.1351,,0,39,39,93,1,Magenta is a color,f,,,
,,,,,,,,8110,2022-04-06_18h11.02.232,ImplicitInfinitySC-FASTTASK,2021.2.3,Win32,59.89099838,,,,space,0.8687,,,,,,,,,j,1,1.7217,space,0,40,40,67,1,Gravity has a molecular structure,j,0.64,,
,,,,,,,,8110,2022-04-06_18h11.02.232,ImplicitInfinitySC-FASTTASK,2021.2.3,Win32,59.89099838,,,,space,0.5206,,,,,,,,,j,0,1.4029,,0,41,41,8,1,An inch is finite,f,,,
,,,,,,,,8110,2022-04-06_18h11.02.232,ImplicitInfinitySC-FASTTASK,2021.2.3,Win32,59.89099838,,,,space,0.2219,,,,,,,,,j,1,1.4183,,0,42,42,118,1,A horse is used to tell time,j,,,
,,,,,,,,8110,2022-04-06_18h11.02.232,ImplicitInfinitySC-FASTTASK,2021.2.3,Win32,59.89099838,,,,space,0.0847,,,,,,,,,j,1,2.3028,,0,43,43,124,1,The president of the United States is Oprah,j,,,
,,,,,,,,8110,2022-04-06_18h11.02.232,ImplicitInfinitySC-FASTTASK,2021.2.3,Win32,59.89099838,,,,space,0.4962,,,,,,,,,j,1,1.3034,,0,44,44,82,1,Stones reproduce,j,,,
,,,,,,,,8110,2022-04-06_18h11.02.232,ImplicitInfinitySC-FASTTASK,2021.2.3,Win32,59.89099838,,,,space,0.3816,,,,,,,,,j,1,2.035,,0,45,45,112,1,Dinosaurs are not extinct,j,,,
,,,,,,,,8110,2022-04-06_18h11.02.232,ImplicitInfinitySC-FASTTASK,2021.2.3,Win32,59.89099838,,,,space,0.8215,,,,,,,,,f,0,1.8776,,0,46,46,14,1,An inch cannot always be further divided,j,,,
,,,,,,,,8110,2022-04-06_18h11.02.232,ImplicitInfinitySC-FASTTASK,2021.2.3,Win32,59.89099838,,,,space,0.1212,,,,,,,,,j,0,2.1017,,0,47,47,21,1,Time can go on forever,f,,,
,,,,,,,,8110,2022-04-06_18h11.02.232,ImplicitInfinitySC-FASTTASK,2021.2.3,Win32,59.89099838,,,,space,0.6173,,,,,,,,,,0,,,0,48,48,77,1,Saliva has a molecular structure,f,,,
,,,,,,,,8110,2022-04-06_18h11.02.232,ImplicitInfinitySC-FASTTASK,2021.2.3,Win32,59.89099838,,,,space,0.305,,,,,,,,,j,1,1.3521,,0,49,49,120,1,A truck is an animal,j,,,
,,,,,,,,8110,2022-04-06_18h11.02.232,ImplicitInfinitySC-FASTTASK,2021.2.3,Win32,59.89099838,,,,space,0.1666,,,,,,,,,j,1,1.0918,,0,50,50,16,1,Time is finite,j,,,
,,,,,,,,8110,2022-04-06_18h11.02.232,ImplicitInfinitySC-FASTTASK,2021.2.3,Win32,59.89099838,,,,space,0.0736,,,,,,,,,j,1,1.186,,0,51,51,109,1,A square is a color,j,,,
,,,,,,,,8110,2022-04-06_18h11.02.232,ImplicitInfinitySC-FASTTASK,2021.2.3,Win32,59.89099838,,,,space,0.99,,,,,,,,,j,0,1.9373,,0,52,52,105,1,There are fifty states in the United States,f,,,
,,,,,,,,8110,2022-04-06_18h11.02.232,ImplicitInfinitySC-FASTTASK,2021.2.3,Win32,59.89099838,,,,space,0.2964,,,,,,,,,j,1,1.2373,,0,53,53,5,1,A minute can go on forever,j,,,
,,,,,,,,8110,2022-04-06_18h11.02.232,ImplicitInfinitySC-FASTTASK,2021.2.3,Win32,59.89099838,,,,space,0.0719,,,,,,,,,j,1,1.6179,,0,54,54,63,1,Color can be put in a container,j,,,
,,,,,,,,8110,2022-04-06_18h11.02.232,ImplicitInfinitySC-FASTTASK,2021.2.3,Win32,59.89099838,,,,space,0.5018,,,,,,,,,,0,,,0,55,55,35,1,Numbers are endless,f,,,
,,,,,,,,8110,2022-04-06_18h11.02.232,ImplicitInfinitySC-FASTTASK,2021.2.3,Win32,59.89099838,,,,space,0.4016,,,,,,,,,f,1,1.7685,,0,56,56,15,1,An inch can be always further divided,f,,,
,,,,,,,,8110,2022-04-06_18h11.02.232,ImplicitInfinitySC-FASTTASK,2021.2.3,Win32,59.89099838,,,,space,0.1998,,,,,,,,,f,1,1.8621,,0,57,57,12,1,An inch cannot go on forever,f,,,
,,,,,,,,8110,2022-04-06_18h11.02.232,ImplicitInfinitySC-FASTTASK,2021.2.3,Win32,59.89099838,,,,space,0.3073,,,,,,,,,,0,,,0,58,58,47,1,The number five can always be further divided,f,,,
,,,,,,,,8110,2022-04-06_18h11.02.232,ImplicitInfinitySC-FASTTASK,2021.2.3,Win32,59.89099838,,,,space,0.039,,,,,,,,,j,1,1.7299,,0,59,59,79,1,Forks are alive,j,,,
,,,,,,,,8110,2022-04-06_18h11.02.232,ImplicitInfinitySC-FASTTASK,2021.2.3,Win32,59.89099838,,,,space,0.067,,,,,,,,,j,1,1.4981,,0,60,60,125,1,There are ninty states in the United States,j,,,
,,,,,,,,8110,2022-04-06_18h11.02.232,ImplicitInfinitySC-FASTTASK,2021.2.3,Win32,59.89099838,,,,space,0.1011,,,,,,,,,j,0,1.4034,,0,61,61,29,1,Space can go on forever,f,,,
,,,,,,,,8110,2022-04-06_18h11.02.232,ImplicitInfinitySC-FASTTASK,2021.2.3,Win32,59.89099838,,,,space,0.0669,,,,,,,,,j,1,1.7059,,0,62,62,126,1,Humans can breathe water,j,,,
,,,,,,,,8110,2022-04-06_18h11.02.232,ImplicitInfinitySC-FASTTASK,2021.2.3,Win32,59.89099838,,,,space,0.0541,,,,,,,,,j,0,1.6363,,0,63,63,57,1,Rocks have a molecular structure,f,,,
,,,,,,,,8110,2022-04-06_18h11.02.232,ImplicitInfinitySC-FASTTASK,2021.2.3,Win32,59.89099838,,,,space,0.0832,,,,,,,,,j,1,1.1896,,0,64,64,123,1,Mississippi is a country,j,,,
,,,,,,,,8110,2022-04-06_18h11.02.232,ImplicitInfinitySC-FASTTASK,2021.2.3,Win32,59.89099838,,,,space,0.8542,,,,,,,,,,0,,,0,65,65,54,1,Dumbells are composed of matter,f,,,
,,,,,,,,8110,2022-04-06_18h11.02.232,ImplicitInfinitySC-FASTTASK,2021.2.3,Win32,59.89099838,,,,space,0.1181,,,,,,,,,f,1,1.319,,0,66,66,10,1,An inch has an end,f,,,
,,,,,,,,8110,2022-04-06_18h11.02.232,ImplicitInfinitySC-FASTTASK,2021.2.3,Win32,59.89099838,,,,space,0.7052,,,,,,,,,f,1,1.9665,,0,67,67,101,1,Jupiter is in our solar system,f,,,
,,,,,,,,8110,2022-04-06_18h11.02.232,ImplicitInfinitySC-FASTTASK,2021.2.3,Win32,59.89099838,,,,space,0.218,,,,,,,,,f,1,1.8219,,0,68,68,102,1,The Earth is a planet,f,,,
,,,,,,,,8110,2022-04-06_18h11.02.232,ImplicitInfinitySC-FASTTASK,2021.2.3,Win32,59.89099838,,,,space,0.2214,,,,,,,,,j,1,2.0123,,0,69,69,59,1,Comets are alive,j,,,
,,,,,,,,8110,2022-04-06_18h11.02.232,ImplicitInfinitySC-FASTTASK,2021.2.3,Win32,59.89099838,,,,space,0.0792,,,,,,,,,j,1,2.0034,,0,70,70,13,1,An inch can go on forever,j,,,
,,,,,,,,8110,2022-04-06_18h11.02.232,ImplicitInfinitySC-FASTTASK,2021.2.3,Win32,59.89099838,,,,space,0.0709,,,,,,,,,j,1,1.9023,,0,71,71,114,1,Lightbulbs are made of clay,j,,,
,,,,,,,,8110,2022-04-06_18h11.02.232,ImplicitInfinitySC-FASTTASK,2021.2.3,Win32,59.89099838,,,,space,0.0666,,,,,,,,,j,0,1.5512,,0,72,72,17,1,Time is infinite,f,,,
,,,,,,,,8110,2022-04-06_18h11.02.232,ImplicitInfinitySC-FASTTASK,2021.2.3,Win32,59.89099838,,,,space,0.068,,,,,,,,,j,1,2.0439,,0,73,73,80,1,Mittens need nutrients,j,,,
,,,,,,,,8110,2022-04-06_18h11.02.232,ImplicitInfinitySC-FASTTASK,2021.2.3,Win32,59.89099838,,,,space,0.0619,,,,,,,,,j,1,1.13,,0,74,74,110,1,A triangle is an animal,j,,,
,,,,,,,,8110,2022-04-06_18h11.02.232,ImplicitInfinitySC-FASTTASK,2021.2.3,Win32,59.89099838,,,,space,0.0691,,,,,,,,,j,0,1.7578,,0,75,75,31,1,Space can always be further divided,f,,,
,,,,,,,,8110,2022-04-06_18h11.02.232,ImplicitInfinitySC-FASTTASK,2021.2.3,Win32,59.89099838,,,,space,0.3842,,,,,,,,,f,1,1.9006,,0,76,76,53,1,Bricks can be put in a container,f,,,
,,,,,,,,8110,2022-04-06_18h11.02.232,ImplicitInfinitySC-FASTTASK,2021.2.3,Win32,59.89099838,,,,space,0.078,,,,,,,,,j,1,0.9657,,0,77,77,115,1,Yellow is an animal,j,,,
,,,,,,,,8110,2022-04-06_18h11.02.232,ImplicitInfinitySC-FASTTASK,2021.2.3,Win32,59.89099838,,,,space,0.0458,,,,,,,,,j,1,1.3858,,0,78,78,66,1,Music has a molecular structure,j,,,
,,,,,,,,8110,2022-04-06_18h11.02.232,ImplicitInfinitySC-FASTTASK,2021.2.3,Win32,59.89099838,,,,space,0.2815,,,,,,,,,f,1,1.4469,,0,79,79,72,1,Mushrooms reproduce,f,,,
,,,,,,,,8110,2022-04-06_18h11.02.232,ImplicitInfinitySC-FASTTASK,2021.2.3,Win32,59.89099838,,,,space,0.0992,,,,,,,,,j,1,1.9401,,0,80,80,113,1,Magenta is a shape,j,,,
,,,,,,,,8110,2022-04-06_18h11.02.232,ImplicitInfinitySC-FASTTASK,2021.2.3,Win32,59.89099838,,,,,,,,,,,,,,,,,,,,,,,,,,space,15.3646
