INSTRESP.keys,INSTRESP.rt,Instrloop.thisRepN,Instrloop.thisTrialN,Instrloop.thisN,Instrloop.thisIndex,Instrloop.ran,FastInstructions,participant,date,expName,psychopyVersion,OS,frameRate,key_resp_2.keys,key_resp_2.corr,key_resp_2.rt,Advance_Resp.keys,Advance_Resp.rt,Practice.thisRepN,Practice.thisTrialN,Practice.thisN,Practice.thisIndex,Practice.ran,practicetext,practicecorrect,key_resp_3.keys,key_resp_3.rt,key_resp.keys,key_resp.corr,key_resp.rt,encouragekey.keys,FastLoop.thisRepN,FastLoop.thisTrialN,FastLoop.thisN,FastLoop.thisIndex,FastLoop.ran,Statement,Correct,encouragekey.rt,endstudykey.keys,endstudykey.rt
space,14.2611,0,0,0,0,1,"You will be shown a total of 80 statements pertaining to mathematics, science, and social concepts. Your task is to determine whether each statement is true or false as quickly as possible without sacrificing accuracy. Some statements will be difficult and some will be easier.  We do not expect you to know the correct answer for all 80 statements.  Press SPACE to Continue",8831,2022-04-06_16h06.51.396,ImplicitInfinitySC-FASTTASK,2021.2.3,Win32,60.26637739,,,,,,,,,,,,,,,,,,,,,,,,,,,,
,,0,1,1,1,1,"Each statement will appear on your screen for up to 4 seconds and you will have those 4 seconds to decide if it is true or false before the next statement appears. There will be a beep to inform you that you have 2.5 seconds remaining. Please make sure the sound on your computer is turned on. If you do not respond, that answer will be considered incorrect and the task will move on to the next statement. Press SPACE to continue",8831,2022-04-06_16h06.51.396,ImplicitInfinitySC-FASTTASK,2021.2.3,Win32,60.26637739,,,,,,,,,,,,,,,,,,,,,,,,,,,,
space,6.1904,0,2,2,2,1,"If the statement is true, you will press the “F” key on your keyboard with your left pointer finger; if the statement is false, you will press the “J” key on your keyboard with your right pointer finger. Press SPACE to continue",8831,2022-04-06_16h06.51.396,ImplicitInfinitySC-FASTTASK,2021.2.3,Win32,60.26637739,,,,,,,,,,,,,,,,,,,,,,,,,,,,
space,8.8471,0,3,3,3,1,"Prior to completing the study, you will complete 10 practice trials to familiarize yourself with the task. Your performance on these trials will determine your participation in the following study. Press SPACE to continue.",8831,2022-04-06_16h06.51.396,ImplicitInfinitySC-FASTTASK,2021.2.3,Win32,60.26637739,,,,,,,,,,,,,,,,,,,,,,,,,,,,
space,6.4935,0,4,4,4,1,"If the statement is true, press the “F” key on your keyboard with your left pointer finger; if the statement is false, press the “J” key on your keyboard with your right pointer finger. Press SPACE to continue",8831,2022-04-06_16h06.51.396,ImplicitInfinitySC-FASTTASK,2021.2.3,Win32,60.26637739,,,,,,,,,,,,,,,,,,,,,,,,,,,,
,,,,,,,,8831,2022-04-06_16h06.51.396,ImplicitInfinitySC-FASTTASK,2021.2.3,Win32,60.26637739,j,1,1.7694,space,6.4527,0,0,0,5,1,A truck is an animal,j,,,,,,,,,,,,,,,,
,,,,,,,,8831,2022-04-06_16h06.51.396,ImplicitInfinitySC-FASTTASK,2021.2.3,Win32,60.26637739,j,1,1.7547,space,1.0195,0,1,1,8,1,Mississippi is a country,j,,,,,,,,,,,,,,,,
,,,,,,,,8831,2022-04-06_16h06.51.396,ImplicitInfinitySC-FASTTASK,2021.2.3,Win32,60.26637739,j,1,1.4418,space,9.1695,0,2,2,7,1,The Earth is a star,j,,,,,,,,,,,,,,,,
,,,,,,,,8831,2022-04-06_16h06.51.396,ImplicitInfinitySC-FASTTASK,2021.2.3,Win32,60.26637739,f,1,1.672,space,1.2438,0,3,3,4,1,Humans cannot breathe water,f,,,,,,,,,,,,,,,,
,,,,,,,,8831,2022-04-06_16h06.51.396,ImplicitInfinitySC-FASTTASK,2021.2.3,Win32,60.26637739,f,1,1.6173,space,0.7476,0,4,4,0,1,A circle is a shape,f,,,,,,,,,,,,,,,,
,,,,,,,,8831,2022-04-06_16h06.51.396,ImplicitInfinitySC-FASTTASK,2021.2.3,Win32,60.26637739,j,1,1.2397,space,0.6675,0,5,5,9,1,Humans cannot eat food,j,,,,,,,,,,,,,,,,
,,,,,,,,8831,2022-04-06_16h06.51.396,ImplicitInfinitySC-FASTTASK,2021.2.3,Win32,60.26637739,f,1,0.9134,space,0.5803,0,6,6,2,1,Magenta is a color,f,,,,,,,,,,,,,,,,
,,,,,,,,8831,2022-04-06_16h06.51.396,ImplicitInfinitySC-FASTTASK,2021.2.3,Win32,60.26637739,j,1,1.4167,space,0.8904,0,7,7,6,1,Jupiter is the planet we live on,j,,,,,,,,,,,,,,,,
,,,,,,,,8831,2022-04-06_16h06.51.396,ImplicitInfinitySC-FASTTASK,2021.2.3,Win32,60.26637739,f,1,1.27,space,1.4133,0,8,8,1,1,Dinosaurs are extinct,f,,,,,,,,,,,,,,,,
,,,,,,,,8831,2022-04-06_16h06.51.396,ImplicitInfinitySC-FASTTASK,2021.2.3,Win32,60.26637739,f,1,1.1304,space,0.6308,0,9,9,3,1,A clock is used to tell time,f,,,,,,,,,,,,,,,,
,,,,,,,,8831,2022-04-06_16h06.51.396,ImplicitInfinitySC-FASTTASK,2021.2.3,Win32,60.26637739,,,,space,0.9535,,,,,,,,space,6.6927,f,1,1.4641,,0,0,0,54,1,Dumbells are composed of matter,f,,,
,,,,,,,,8831,2022-04-06_16h06.51.396,ImplicitInfinitySC-FASTTASK,2021.2.3,Win32,60.26637739,,,,space,0.7418,,,,,,,,,,j,1,1.5214,,0,1,1,32,1,Numbers are finite,j,,,
,,,,,,,,8831,2022-04-06_16h06.51.396,ImplicitInfinitySC-FASTTASK,2021.2.3,Win32,60.26637739,,,,space,0.5581,,,,,,,,,,f,1,0.9824,,0,2,2,71,1,Oaks reproduce,f,,,
,,,,,,,,8831,2022-04-06_16h06.51.396,ImplicitInfinitySC-FASTTASK,2021.2.3,Win32,60.26637739,,,,space,0.7244,,,,,,,,,,j,1,2.0561,,0,3,3,85,1,Thoughts are composed of matter,j,,,
,,,,,,,,8831,2022-04-06_16h06.51.396,ImplicitInfinitySC-FASTTASK,2021.2.3,Win32,60.26637739,,,,space,0.5901,,,,,,,,,,j,1,1.0701,,0,4,4,82,1,Stones reproduce,j,,,
,,,,,,,,8831,2022-04-06_16h06.51.396,ImplicitInfinitySC-FASTTASK,2021.2.3,Win32,60.26637739,,,,space,0.4879,,,,,,,,,,j,1,1.754,,0,5,5,5,1,A minute can go on forever,j,,,
,,,,,,,,8831,2022-04-06_16h06.51.396,ImplicitInfinitySC-FASTTASK,2021.2.3,Win32,60.26637739,,,,space,0.6898,,,,,,,,,,f,1,0.9143,,0,6,6,103,1,The United States is a country,f,,,
,,,,,,,,8831,2022-04-06_16h06.51.396,ImplicitInfinitySC-FASTTASK,2021.2.3,Win32,60.26637739,,,,space,0.6166,,,,,,,,,,f,1,1.1257,,0,7,7,72,1,Mushrooms reproduce,f,,,
,,,,,,,,8831,2022-04-06_16h06.51.396,ImplicitInfinitySC-FASTTASK,2021.2.3,Win32,60.26637739,,,,space,0.4086,,,,,,,,,,j,1,0.8862,,0,8,8,119,1,A motorcycle is a person,j,,,
,,,,,,,,8831,2022-04-06_16h06.51.396,ImplicitInfinitySC-FASTTASK,2021.2.3,Win32,60.26637739,,,,space,0.6204,,,,,,,,,,f,1,1.4487,,0,9,9,10,1,An inch has an end,f,,,
,,,,,,,,8831,2022-04-06_16h06.51.396,ImplicitInfinitySC-FASTTASK,2021.2.3,Win32,60.26637739,,,,space,0.4166,,,,,,,,,,j,1,1.2113,,0,10,10,109,1,A square is a color,j,,,
,,,,,,,,8831,2022-04-06_16h06.51.396,ImplicitInfinitySC-FASTTASK,2021.2.3,Win32,60.26637739,,,,space,0.7333,,,,,,,,,,,0,,,0,11,11,46,1,The number five cannot always be further divided,j,,,
,,,,,,,,8831,2022-04-06_16h06.51.396,ImplicitInfinitySC-FASTTASK,2021.2.3,Win32,60.26637739,,,,space,0.3838,,,,,,,,,,f,1,1.3344,,0,12,12,91,1,A circle is a shape,f,,,
,,,,,,,,8831,2022-04-06_16h06.51.396,ImplicitInfinitySC-FASTTASK,2021.2.3,Win32,60.26637739,,,,space,0.4952,,,,,,,,,,j,1,1.3749,,0,13,13,67,1,Gravity has a molecular structure,j,,,
,,,,,,,,8831,2022-04-06_16h06.51.396,ImplicitInfinitySC-FASTTASK,2021.2.3,Win32,60.26637739,,,,space,0.5169,,,,,,,,,,j,1,1.0413,,0,14,14,62,1,Helicopters reproduce,j,,,
,,,,,,,,8831,2022-04-06_16h06.51.396,ImplicitInfinitySC-FASTTASK,2021.2.3,Win32,60.26637739,,,,space,0.5409,,,,,,,,,,f,1,1.0901,,0,15,15,88,1,This sentence is written in English,f,,,
,,,,,,,,8831,2022-04-06_16h06.51.396,ImplicitInfinitySC-FASTTASK,2021.2.3,Win32,60.26637739,,,,space,0.4502,,,,,,,,,,f,1,1.3345,,0,16,16,57,1,Rocks have a molecular structure,f,,,
,,,,,,,,8831,2022-04-06_16h06.51.396,ImplicitInfinitySC-FASTTASK,2021.2.3,Win32,60.26637739,,,,space,0.4504,,,,,,,,,,f,1,0.8518,,0,17,17,52,1,Frogs reproduce,f,,,
,,,,,,,,8831,2022-04-06_16h06.51.396,ImplicitInfinitySC-FASTTASK,2021.2.3,Win32,60.26637739,,,,space,0.5938,,,,,,,,,,f,1,1.4273,,0,18,18,33,1,Numbers are infinite,f,,,
,,,,,,,,8831,2022-04-06_16h06.51.396,ImplicitInfinitySC-FASTTASK,2021.2.3,Win32,60.26637739,,,,space,0.507,,,,,,,,,,j,1,1.3215,,0,19,19,118,1,A horse is used to tell time,j,,,
,,,,,,,,8831,2022-04-06_16h06.51.396,ImplicitInfinitySC-FASTTASK,2021.2.3,Win32,60.26637739,,,,space,0.7054,,,,,,,,,,f,1,1.2525,,0,20,20,75,1,Frost is composed of matter,f,,,
,,,,,,,,8831,2022-04-06_16h06.51.396,ImplicitInfinitySC-FASTTASK,2021.2.3,Win32,60.26637739,,,,space,0.547,,,,,,,,,,f,1,1.6525,,0,21,21,90,1,A triangle is not an animal,f,,,
,,,,,,,,8831,2022-04-06_16h06.51.396,ImplicitInfinitySC-FASTTASK,2021.2.3,Win32,60.26637739,,,,space,0.6459,,,,,,,,,,j,1,1.1814,,0,22,22,26,1,Space has an end,j,,,
,,,,,,,,8831,2022-04-06_16h06.51.396,ImplicitInfinitySC-FASTTASK,2021.2.3,Win32,60.26637739,,,,space,0.5637,,,,,,,,,,j,1,1.5042,,0,23,23,84,1,Silence is composed of matter,j,,,
,,,,,,,,8831,2022-04-06_16h06.51.396,ImplicitInfinitySC-FASTTASK,2021.2.3,Win32,60.26637739,,,,space,0.5486,,,,,,,,,,f,1,1.3545,,0,24,24,42,1,The number five has an end,f,,,
,,,,,,,,8831,2022-04-06_16h06.51.396,ImplicitInfinitySC-FASTTASK,2021.2.3,Win32,60.26637739,,,,space,0.4215,,,,,,,,,,f,1,1.0537,,0,25,25,96,1,Fish can swim in the ocean,f,,,
,,,,,,,,8831,2022-04-06_16h06.51.396,ImplicitInfinitySC-FASTTASK,2021.2.3,Win32,60.26637739,,,,space,0.4044,,,,,,,,,,f,1,0.7602,,0,26,26,94,1,Orange is a color,f,,,
,,,,,,,,8831,2022-04-06_16h06.51.396,ImplicitInfinitySC-FASTTASK,2021.2.3,Win32,60.26637739,,,,space,0.4529,,,,,,,,,,j,1,1.1621,,0,27,27,43,1,The number five is endless,j,,,
,,,,,,,,8831,2022-04-06_16h06.51.396,ImplicitInfinitySC-FASTTASK,2021.2.3,Win32,60.26637739,,,,space,0.3704,,,,,,,,,,j,1,1.0391,,0,28,28,123,1,Mississippi is a country,j,,,
,,,,,,,,8831,2022-04-06_16h06.51.396,ImplicitInfinitySC-FASTTASK,2021.2.3,Win32,60.26637739,,,,space,0.437,,,,,,,,,,f,1,1.0478,,0,29,29,21,1,Time can go on forever,f,,,
,,,,,,,,8831,2022-04-06_16h06.51.396,ImplicitInfinitySC-FASTTASK,2021.2.3,Win32,60.26637739,,,,space,0.4145,,,,,,,,,,j,1,1.0868,,0,30,30,11,1,An inch is endless,j,,,
,,,,,,,,8831,2022-04-06_16h06.51.396,ImplicitInfinitySC-FASTTASK,2021.2.3,Win32,60.26637739,,,,space,0.5198,,,,,,,,,,f,1,1.4424,,0,31,31,47,1,The number five can always be further divided,f,,,
,,,,,,,,8831,2022-04-06_16h06.51.396,ImplicitInfinitySC-FASTTASK,2021.2.3,Win32,60.26637739,,,,space,0.3765,,,,,,,,,,f,1,1.0736,,0,32,32,100,1,A truck is a vehicle,f,,,
,,,,,,,,8831,2022-04-06_16h06.51.396,ImplicitInfinitySC-FASTTASK,2021.2.3,Win32,60.26637739,,,,space,0.3654,,,,,,,,,,f,1,1.0146,,0,33,33,105,1,There are fifty states in the United States,f,,,
,,,,,,,,8831,2022-04-06_16h06.51.396,ImplicitInfinitySC-FASTTASK,2021.2.3,Win32,60.26637739,,,,space,0.4061,,,,,,,,,,f,1,1.3942,,0,34,34,0,1,A minute is finite,f,,,
,,,,,,,,8831,2022-04-06_16h06.51.396,ImplicitInfinitySC-FASTTASK,2021.2.3,Win32,60.26637739,,,,space,0.3562,,,,,,,,,,f,1,1.1973,,0,35,35,101,1,Jupiter is in our solar system,f,,,
,,,,,,,,8831,2022-04-06_16h06.51.396,ImplicitInfinitySC-FASTTASK,2021.2.3,Win32,60.26637739,,,,space,0.3404,,,,,,,,,,f,1,1.3485,,0,36,36,44,1,The number five cannot go on forever,f,,,
,,,,,,,,8831,2022-04-06_16h06.51.396,ImplicitInfinitySC-FASTTASK,2021.2.3,Win32,60.26637739,,,,space,0.3782,,,,,,,,,,j,1,1.1568,,0,37,37,1,1,A minute is infinite,j,,,
,,,,,,,,8831,2022-04-06_16h06.51.396,ImplicitInfinitySC-FASTTASK,2021.2.3,Win32,60.26637739,,,,space,0.417,,,,,,,,,,j,1,1.0321,,0,38,38,111,1,A circle is a flavor,j,,,
,,,,,,,,8831,2022-04-06_16h06.51.396,ImplicitInfinitySC-FASTTASK,2021.2.3,Win32,60.26637739,,,,space,0.3615,,,,,,,,,,j,1,0.9083,,0,39,39,120,1,A truck is an animal,j,,,
,,,,,,,,8831,2022-04-06_16h06.51.396,ImplicitInfinitySC-FASTTASK,2021.2.3,Win32,60.26637739,,,,space,1.0002,,,,,,,,,,j,1,1.0734,space,0,40,40,13,1,An inch can go on forever,j,1.3471,,
,,,,,,,,8831,2022-04-06_16h06.51.396,ImplicitInfinitySC-FASTTASK,2021.2.3,Win32,60.26637739,,,,space,0.6779,,,,,,,,,,f,1,1.4039,,0,41,41,12,1,An inch cannot go on forever,f,,,
,,,,,,,,8831,2022-04-06_16h06.51.396,ImplicitInfinitySC-FASTTASK,2021.2.3,Win32,60.26637739,,,,space,0.4193,,,,,,,,,,f,1,1.1663,,0,42,42,106,1,Humans cannot breathe water,f,,,
,,,,,,,,8831,2022-04-06_16h06.51.396,ImplicitInfinitySC-FASTTASK,2021.2.3,Win32,60.26637739,,,,space,0.4079,,,,,,,,,,j,1,1.2217,,0,43,43,127,1,A zebra is used to write,j,,,
,,,,,,,,8831,2022-04-06_16h06.51.396,ImplicitInfinitySC-FASTTASK,2021.2.3,Win32,60.26637739,,,,space,0.4613,,,,,,,,,,j,1,1.2273,,0,44,44,64,1,Echoes are composed of matter,j,,,
,,,,,,,,8831,2022-04-06_16h06.51.396,ImplicitInfinitySC-FASTTASK,2021.2.3,Win32,60.26637739,,,,space,0.5845,,,,,,,,,,j,1,1.4244,,0,45,45,115,1,Yellow is an animal,j,,,
,,,,,,,,8831,2022-04-06_16h06.51.396,ImplicitInfinitySC-FASTTASK,2021.2.3,Win32,60.26637739,,,,space,0.4866,,,,,,,,,,j,1,1.2446,,0,46,46,125,1,There are ninty states in the United States,j,,,
,,,,,,,,8831,2022-04-06_16h06.51.396,ImplicitInfinitySC-FASTTASK,2021.2.3,Win32,60.26637739,,,,space,0.4567,,,,,,,,,,j,1,1.3904,,0,47,47,24,1,Space is finite,j,,,
,,,,,,,,8831,2022-04-06_16h06.51.396,ImplicitInfinitySC-FASTTASK,2021.2.3,Win32,60.26637739,,,,space,0.5656,,,,,,,,,,j,1,1.5942,,0,48,48,66,1,Music has a molecular structure,j,,,
,,,,,,,,8831,2022-04-06_16h06.51.396,ImplicitInfinitySC-FASTTASK,2021.2.3,Win32,60.26637739,,,,space,0.517,,,,,,,,,,f,1,1.4509,,0,49,49,39,1,Numbers can always be further divided,f,,,
,,,,,,,,8831,2022-04-06_16h06.51.396,ImplicitInfinitySC-FASTTASK,2021.2.3,Win32,60.26637739,,,,space,0.6528,,,,,,,,,,f,1,1.5049,,0,50,50,17,1,Time is infinite,f,,,
,,,,,,,,8831,2022-04-06_16h06.51.396,ImplicitInfinitySC-FASTTASK,2021.2.3,Win32,60.26637739,,,,space,0.4342,,,,,,,,,,j,1,0.8491,,0,51,51,58,1,Clocks are alive,j,,,
,,,,,,,,8831,2022-04-06_16h06.51.396,ImplicitInfinitySC-FASTTASK,2021.2.3,Win32,60.26637739,,,,space,0.4564,,,,,,,,,,j,1,1.2764,,0,52,52,60,1,Robots need nutrients,j,,,
,,,,,,,,8831,2022-04-06_16h06.51.396,ImplicitInfinitySC-FASTTASK,2021.2.3,Win32,60.26637739,,,,space,0.5176,,,,,,,,,,f,1,1.0543,,0,53,53,56,1,Diamonds have a molecular structure,f,,,
,,,,,,,,8831,2022-04-06_16h06.51.396,ImplicitInfinitySC-FASTTASK,2021.2.3,Win32,60.26637739,,,,space,0.4399,,,,,,,,,,j,1,0.917,,0,54,54,78,1,Hammers are alive,j,,,
,,,,,,,,8831,2022-04-06_16h06.51.396,ImplicitInfinitySC-FASTTASK,2021.2.3,Win32,60.26637739,,,,space,0.4558,,,,,,,,,,j,1,1.3807,,0,55,55,108,1,This sentence is written in Spanish,j,,,
,,,,,,,,8831,2022-04-06_16h06.51.396,ImplicitInfinitySC-FASTTASK,2021.2.3,Win32,60.26637739,,,,space,0.5083,,,,,,,,,,f,0,2.753,,0,56,56,83,1,Songs can be put in a container,j,,,
,,,,,,,,8831,2022-04-06_16h06.51.396,ImplicitInfinitySC-FASTTASK,2021.2.3,Win32,60.26637739,,,,space,0.5897,,,,,,,,,,f,1,1.3847,,0,57,57,89,1,A square is a shape,f,,,
,,,,,,,,8831,2022-04-06_16h06.51.396,ImplicitInfinitySC-FASTTASK,2021.2.3,Win32,60.26637739,,,,space,0.4394,,,,,,,,,,j,1,0.9971,,0,58,58,61,1,Sailboats reproduce,j,,,
,,,,,,,,8831,2022-04-06_16h06.51.396,ImplicitInfinitySC-FASTTASK,2021.2.3,Win32,60.26637739,,,,space,0.4303,,,,,,,,,,j,1,1.3538,,0,59,59,9,1,An inch is infinite,j,,,
,,,,,,,,8831,2022-04-06_16h06.51.396,ImplicitInfinitySC-FASTTASK,2021.2.3,Win32,60.26637739,,,,space,0.5739,,,,,,,,,,f,1,1.3383,,0,60,60,29,1,Space can go on forever,f,,,
,,,,,,,,8831,2022-04-06_16h06.51.396,ImplicitInfinitySC-FASTTASK,2021.2.3,Win32,60.26637739,,,,space,0.5688,,,,,,,,,,f,1,1.4185,,0,61,61,53,1,Bricks can be put in a container,f,,,
,,,,,,,,8831,2022-04-06_16h06.51.396,ImplicitInfinitySC-FASTTASK,2021.2.3,Win32,60.26637739,,,,space,0.4332,,,,,,,,,,j,1,0.8502,,0,62,62,79,1,Forks are alive,j,,,
,,,,,,,,8831,2022-04-06_16h06.51.396,ImplicitInfinitySC-FASTTASK,2021.2.3,Win32,60.26637739,,,,space,0.5973,,,,,,,,,,f,1,1.381,,0,63,63,74,1,Foam is composed of matter,f,,,
,,,,,,,,8831,2022-04-06_16h06.51.396,ImplicitInfinitySC-FASTTASK,2021.2.3,Win32,60.26637739,,,,space,0.5026,,,,,,,,,,f,1,1.7007,,0,64,64,48,1,Crocodiles are alive,f,,,
,,,,,,,,8831,2022-04-06_16h06.51.396,ImplicitInfinitySC-FASTTASK,2021.2.3,Win32,60.26637739,,,,space,0.4793,,,,,,,,,,j,1,1.6953,,0,65,65,65,1,Shadows are composed of matter,j,,,
,,,,,,,,8831,2022-04-06_16h06.51.396,ImplicitInfinitySC-FASTTASK,2021.2.3,Win32,60.26637739,,,,space,0.4578,,,,,,,,,,f,1,1.2414,,0,66,66,55,1,Concrete is composed of matter,f,,,
,,,,,,,,8831,2022-04-06_16h06.51.396,ImplicitInfinitySC-FASTTASK,2021.2.3,Win32,60.26637739,,,,space,0.4445,,,,,,,,,,f,1,0.9562,,0,67,67,92,1,Dinosaurs are extinct,f,,,
,,,,,,,,8831,2022-04-06_16h06.51.396,ImplicitInfinitySC-FASTTASK,2021.2.3,Win32,60.26637739,,,,space,0.4328,,,,,,,,,,f,1,1.0266,,0,68,68,99,1,A motorcycle is a vehicle,f,,,
,,,,,,,,8831,2022-04-06_16h06.51.396,ImplicitInfinitySC-FASTTASK,2021.2.3,Win32,60.26637739,,,,space,0.4077,,,,,,,,,,j,1,1.1984,,0,69,69,114,1,Lightbulbs are made of clay,j,,,
,,,,,,,,8831,2022-04-06_16h06.51.396,ImplicitInfinitySC-FASTTASK,2021.2.3,Win32,60.26637739,,,,space,0.4555,,,,,,,,,,j,1,1.948,,0,70,70,14,1,An inch cannot always be further divided,j,,,
,,,,,,,,8831,2022-04-06_16h06.51.396,ImplicitInfinitySC-FASTTASK,2021.2.3,Win32,60.26637739,,,,space,0.6268,,,,,,,,,,f,1,1.5687,,0,71,71,23,1,Time can always be further divided,f,,,
,,,,,,,,8831,2022-04-06_16h06.51.396,ImplicitInfinitySC-FASTTASK,2021.2.3,Win32,60.26637739,,,,space,0.3449,,,,,,,,,,j,1,1.1933,,0,72,72,124,1,The president of the United States is Oprah,j,,,
,,,,,,,,8831,2022-04-06_16h06.51.396,ImplicitInfinitySC-FASTTASK,2021.2.3,Win32,60.26637739,,,,space,0.5306,,,,,,,,,,j,1,1.202,,0,73,73,16,1,Time is finite,j,,,
,,,,,,,,8831,2022-04-06_16h06.51.396,ImplicitInfinitySC-FASTTASK,2021.2.3,Win32,60.26637739,,,,space,0.5363,,,,,,,,,,f,1,1.4588,,0,74,74,31,1,Space can always be further divided,f,,,
,,,,,,,,8831,2022-04-06_16h06.51.396,ImplicitInfinitySC-FASTTASK,2021.2.3,Win32,60.26637739,,,,space,0.4707,,,,,,,,,,j,1,2.1681,,0,75,75,38,1,Numbers cannot always be further divided,j,,,
,,,,,,,,8831,2022-04-06_16h06.51.396,ImplicitInfinitySC-FASTTASK,2021.2.3,Win32,60.26637739,,,,space,0.4163,,,,,,,,,,f,1,1.1263,,0,76,76,104,1,The United States has a president,f,,,
,,,,,,,,8831,2022-04-06_16h06.51.396,ImplicitInfinitySC-FASTTASK,2021.2.3,Win32,60.26637739,,,,space,0.415,,,,,,,,,,f,1,1.1745,,0,77,77,7,1,A minute can always be further divided,f,,,
,,,,,,,,8831,2022-04-06_16h06.51.396,ImplicitInfinitySC-FASTTASK,2021.2.3,Win32,60.26637739,,,,space,0.5028,,,,,,,,,,j,1,2.1571,,0,78,78,22,1,Time cannot always be further divided,j,,,
,,,,,,,,8831,2022-04-06_16h06.51.396,ImplicitInfinitySC-FASTTASK,2021.2.3,Win32,60.26637739,,,,space,0.4208,,,,,,,,,,f,1,1.1325,,0,79,79,8,1,An inch is finite,f,,,
,,,,,,,,8831,2022-04-06_16h06.51.396,ImplicitInfinitySC-FASTTASK,2021.2.3,Win32,60.26637739,,,,space,0.5543,,,,,,,,,,j,1,1.5942,,0,80,80,34,1,Numbers have an end,j,,,
,,,,,,,,8831,2022-04-06_16h06.51.396,ImplicitInfinitySC-FASTTASK,2021.2.3,Win32,60.26637739,,,,,,,,,,,,,,,,,,,,,,,,,,,space,22.7105
