INSTRESP.keys,INSTRESP.rt,Instrloop.thisRepN,Instrloop.thisTrialN,Instrloop.thisN,Instrloop.thisIndex,Instrloop.ran,FastInstructions,participant,date,expName,psychopyVersion,OS,frameRate,key_resp_2.keys,key_resp_2.corr,key_resp_2.rt,Advance_Resp.keys,Advance_Resp.rt,Practice.thisRepN,Practice.thisTrialN,Practice.thisN,Practice.thisIndex,Practice.ran,practicetext,practicecorrect,key_resp_3.keys,key_resp_3.rt,key_resp.keys,key_resp.corr,key_resp.rt,encouragekey.keys,FastLoop.thisRepN,FastLoop.thisTrialN,FastLoop.thisN,FastLoop.thisIndex,FastLoop.ran,Statement,Correct,encouragekey.rt,endstudykey.keys
space,6.6864,0,0,0,0,1,"You will be shown a total of 80 statements pertaining to mathematics, science, and social concepts. Your task is to determine whether each statement is true or false as quickly as possible without sacrificing accuracy. Some statements will be difficult and some will be easier.  We do not expect you to know the correct answer for all 80 statements.  Press SPACE to Continue",9370,2022-04-06_16h07.42.042,ImplicitInfinitySC-FASTTASK,2021.2.3,Win32,59.94125757,,,,,,,,,,,,,,,,,,,,,,,,,,,
space,15.9781,0,1,1,1,1,"Each statement will appear on your screen for up to 4 seconds and you will have those 4 seconds to decide if it is true or false before the next statement appears. There will be a beep to inform you that you have 2.5 seconds remaining. Please make sure the sound on your computer is turned on. If you do not respond, that answer will be considered incorrect and the task will move on to the next statement. Press SPACE to continue",9370,2022-04-06_16h07.42.042,ImplicitInfinitySC-FASTTASK,2021.2.3,Win32,59.94125757,,,,,,,,,,,,,,,,,,,,,,,,,,,
space,7.1678,0,2,2,2,1,"If the statement is true, you will press the “F” key on your keyboard with your left pointer finger; if the statement is false, you will press the “J” key on your keyboard with your right pointer finger. Press SPACE to continue",9370,2022-04-06_16h07.42.042,ImplicitInfinitySC-FASTTASK,2021.2.3,Win32,59.94125757,,,,,,,,,,,,,,,,,,,,,,,,,,,
space,1.4927,0,3,3,3,1,"Prior to completing the study, you will complete 10 practice trials to familiarize yourself with the task. Your performance on these trials will determine your participation in the following study. Press SPACE to continue.",9370,2022-04-06_16h07.42.042,ImplicitInfinitySC-FASTTASK,2021.2.3,Win32,59.94125757,,,,,,,,,,,,,,,,,,,,,,,,,,,
space,4.0577,0,4,4,4,1,"If the statement is true, press the “F” key on your keyboard with your left pointer finger; if the statement is false, press the “J” key on your keyboard with your right pointer finger. Press SPACE to continue",9370,2022-04-06_16h07.42.042,ImplicitInfinitySC-FASTTASK,2021.2.3,Win32,59.94125757,,,,,,,,,,,,,,,,,,,,,,,,,,,
,,,,,,,,9370,2022-04-06_16h07.42.042,ImplicitInfinitySC-FASTTASK,2021.2.3,Win32,59.94125757,f,1,1.5068,space,1.2632,0,0,0,2,1,Magenta is a color,f,,,,,,,,,,,,,,,
,,,,,,,,9370,2022-04-06_16h07.42.042,ImplicitInfinitySC-FASTTASK,2021.2.3,Win32,59.94125757,j,1,1.6916,space,2.2845,0,1,1,7,1,The Earth is a star,j,,,,,,,,,,,,,,,
,,,,,,,,9370,2022-04-06_16h07.42.042,ImplicitInfinitySC-FASTTASK,2021.2.3,Win32,59.94125757,j,1,1.5576,space,1.1192,0,2,2,8,1,Mississippi is a country,j,,,,,,,,,,,,,,,
,,,,,,,,9370,2022-04-06_16h07.42.042,ImplicitInfinitySC-FASTTASK,2021.2.3,Win32,59.94125757,f,1,1.2706,space,1.176,0,3,3,1,1,Dinosaurs are extinct,f,,,,,,,,,,,,,,,
,,,,,,,,9370,2022-04-06_16h07.42.042,ImplicitInfinitySC-FASTTASK,2021.2.3,Win32,59.94125757,j,1,1.2013,space,0.9757,0,4,4,9,1,Humans cannot eat food,j,,,,,,,,,,,,,,,
,,,,,,,,9370,2022-04-06_16h07.42.042,ImplicitInfinitySC-FASTTASK,2021.2.3,Win32,59.94125757,f,1,1.0347,space,1.0769,0,5,5,3,1,A clock is used to tell time,f,,,,,,,,,,,,,,,
,,,,,,,,9370,2022-04-06_16h07.42.042,ImplicitInfinitySC-FASTTASK,2021.2.3,Win32,59.94125757,j,1,0.905,space,0.6365,0,6,6,5,1,A truck is an animal,j,,,,,,,,,,,,,,,
,,,,,,,,9370,2022-04-06_16h07.42.042,ImplicitInfinitySC-FASTTASK,2021.2.3,Win32,59.94125757,j,1,1.5491,space,0.9682,0,7,7,6,1,Jupiter is the planet we live on,j,,,,,,,,,,,,,,,
,,,,,,,,9370,2022-04-06_16h07.42.042,ImplicitInfinitySC-FASTTASK,2021.2.3,Win32,59.94125757,f,1,0.921,space,0.6498,0,8,8,0,1,A circle is a shape,f,,,,,,,,,,,,,,,
,,,,,,,,9370,2022-04-06_16h07.42.042,ImplicitInfinitySC-FASTTASK,2021.2.3,Win32,59.94125757,j,0,1.1977,space,0.9415,0,9,9,4,1,Humans cannot breathe water,f,,,,,,,,,,,,,,,
,,,,,,,,9370,2022-04-06_16h07.42.042,ImplicitInfinitySC-FASTTASK,2021.2.3,Win32,59.94125757,,,,space,0.9997,,,,,,,,space,1.6004,j,1,1.0938,,0,0,0,118,1,A horse is used to tell time,j,,
,,,,,,,,9370,2022-04-06_16h07.42.042,ImplicitInfinitySC-FASTTASK,2021.2.3,Win32,59.94125757,,,,space,1.8929,,,,,,,,,,f,1,2.2634,,0,1,1,42,1,The number five has an end,f,,
,,,,,,,,9370,2022-04-06_16h07.42.042,ImplicitInfinitySC-FASTTASK,2021.2.3,Win32,59.94125757,,,,space,1.198,,,,,,,,,,f,1,2.1587,,0,2,2,75,1,Frost is composed of matter,f,,
,,,,,,,,9370,2022-04-06_16h07.42.042,ImplicitInfinitySC-FASTTASK,2021.2.3,Win32,59.94125757,,,,space,0.7178,,,,,,,,,,f,1,1.0965,,0,3,3,70,1,Grass needs nutrients,f,,
,,,,,,,,9370,2022-04-06_16h07.42.042,ImplicitInfinitySC-FASTTASK,2021.2.3,Win32,59.94125757,,,,space,1.2676,,,,,,,,,,j,1,1.4019,,0,4,4,43,1,The number five is endless,j,,
,,,,,,,,9370,2022-04-06_16h07.42.042,ImplicitInfinitySC-FASTTASK,2021.2.3,Win32,59.94125757,,,,space,0.9153,,,,,,,,,,f,1,1.8165,,0,5,5,15,1,An inch can be always further divided,f,,
,,,,,,,,9370,2022-04-06_16h07.42.042,ImplicitInfinitySC-FASTTASK,2021.2.3,Win32,59.94125757,,,,space,0.6369,,,,,,,,,,f,1,1.0137,,0,6,6,71,1,Oaks reproduce,f,,
,,,,,,,,9370,2022-04-06_16h07.42.042,ImplicitInfinitySC-FASTTASK,2021.2.3,Win32,59.94125757,,,,space,0.6848,,,,,,,,,,j,1,1.738,,0,7,7,26,1,Space has an end,j,,
,,,,,,,,9370,2022-04-06_16h07.42.042,ImplicitInfinitySC-FASTTASK,2021.2.3,Win32,59.94125757,,,,space,1.4171,,,,,,,,,,f,0,1.1245,,0,8,8,32,1,Numbers are finite,j,,
,,,,,,,,9370,2022-04-06_16h07.42.042,ImplicitInfinitySC-FASTTASK,2021.2.3,Win32,59.94125757,,,,space,0.6905,,,,,,,,,,f,1,0.9644,,0,9,9,27,1,Space is endless,f,,
,,,,,,,,9370,2022-04-06_16h07.42.042,ImplicitInfinitySC-FASTTASK,2021.2.3,Win32,59.94125757,,,,space,0.6704,,,,,,,,,,f,1,1.6102,,0,10,10,21,1,Time can go on forever,f,,
,,,,,,,,9370,2022-04-06_16h07.42.042,ImplicitInfinitySC-FASTTASK,2021.2.3,Win32,59.94125757,,,,space,0.5901,,,,,,,,,,j,1,1.6678,,0,11,11,85,1,Thoughts are composed of matter,j,,
,,,,,,,,9370,2022-04-06_16h07.42.042,ImplicitInfinitySC-FASTTASK,2021.2.3,Win32,59.94125757,,,,space,0.6017,,,,,,,,,,f,1,1.524,,0,12,12,10,1,An inch has an end,f,,
,,,,,,,,9370,2022-04-06_16h07.42.042,ImplicitInfinitySC-FASTTASK,2021.2.3,Win32,59.94125757,,,,space,0.5692,,,,,,,,,,f,1,1.2685,,0,13,13,40,1,The number five is finite,f,,
,,,,,,,,9370,2022-04-06_16h07.42.042,ImplicitInfinitySC-FASTTASK,2021.2.3,Win32,59.94125757,,,,space,0.5418,,,,,,,,,,f,1,1.0005,,0,14,14,97,1,Dolphins can swim in the ocean,f,,
,,,,,,,,9370,2022-04-06_16h07.42.042,ImplicitInfinitySC-FASTTASK,2021.2.3,Win32,59.94125757,,,,space,0.3355,,,,,,,,,,j,1,0.8324,,0,15,15,113,1,Magenta is a shape,j,,
,,,,,,,,9370,2022-04-06_16h07.42.042,ImplicitInfinitySC-FASTTASK,2021.2.3,Win32,59.94125757,,,,space,0.3469,,,,,,,,,,f,1,0.6508,,0,16,16,102,1,The Earth is a planet,f,,
,,,,,,,,9370,2022-04-06_16h07.42.042,ImplicitInfinitySC-FASTTASK,2021.2.3,Win32,59.94125757,,,,space,0.2538,,,,,,,,,,j,1,1.1625,,0,17,17,45,1,The number five can go on forever,j,,
,,,,,,,,9370,2022-04-06_16h07.42.042,ImplicitInfinitySC-FASTTASK,2021.2.3,Win32,59.94125757,,,,space,0.2898,,,,,,,,,,j,0,1.2193,,0,18,18,33,1,Numbers are infinite,f,,
,,,,,,,,9370,2022-04-06_16h07.42.042,ImplicitInfinitySC-FASTTASK,2021.2.3,Win32,59.94125757,,,,space,1.0461,,,,,,,,,,f,0,1.7845,,0,19,19,16,1,Time is finite,j,,
,,,,,,,,9370,2022-04-06_16h07.42.042,ImplicitInfinitySC-FASTTASK,2021.2.3,Win32,59.94125757,,,,space,0.2848,,,,,,,,,,f,1,1.5311,,0,20,20,12,1,An inch cannot go on forever,f,,
,,,,,,,,9370,2022-04-06_16h07.42.042,ImplicitInfinitySC-FASTTASK,2021.2.3,Win32,59.94125757,,,,space,0.2499,,,,,,,,,,f,1,0.9322,,0,21,21,8,1,An inch is finite,f,,
,,,,,,,,9370,2022-04-06_16h07.42.042,ImplicitInfinitySC-FASTTASK,2021.2.3,Win32,59.94125757,,,,space,0.5012,,,,,,,,,,f,1,2.0077,,0,22,22,31,1,Space can always be further divided,f,,
,,,,,,,,9370,2022-04-06_16h07.42.042,ImplicitInfinitySC-FASTTASK,2021.2.3,Win32,59.94125757,,,,space,0.289,,,,,,,,,,f,1,0.9564,,0,23,23,48,1,Crocodiles are alive,f,,
,,,,,,,,9370,2022-04-06_16h07.42.042,ImplicitInfinitySC-FASTTASK,2021.2.3,Win32,59.94125757,,,,space,0.2711,,,,,,,,,,j,1,1.0381,,0,24,24,60,1,Robots need nutrients,j,,
,,,,,,,,9370,2022-04-06_16h07.42.042,ImplicitInfinitySC-FASTTASK,2021.2.3,Win32,59.94125757,,,,space,0.2567,,,,,,,,,,j,1,1.5,,0,25,25,66,1,Music has a molecular structure,j,,
,,,,,,,,9370,2022-04-06_16h07.42.042,ImplicitInfinitySC-FASTTASK,2021.2.3,Win32,59.94125757,,,,space,0.2574,,,,,,,,,,j,1,1.0012,,0,26,26,123,1,Mississippi is a country,j,,
,,,,,,,,9370,2022-04-06_16h07.42.042,ImplicitInfinitySC-FASTTASK,2021.2.3,Win32,59.94125757,,,,space,0.2523,,,,,,,,,,j,1,2.2311,,0,27,27,36,1,Numbers cannot go on forever,j,,
,,,,,,,,9370,2022-04-06_16h07.42.042,ImplicitInfinitySC-FASTTASK,2021.2.3,Win32,59.94125757,,,,space,0.3163,,,,,,,,,,f,1,1.4008,,0,28,28,17,1,Time is infinite,f,,
,,,,,,,,9370,2022-04-06_16h07.42.042,ImplicitInfinitySC-FASTTASK,2021.2.3,Win32,59.94125757,,,,space,0.3571,,,,,,,,,,f,1,1.9356,,0,29,29,53,1,Bricks can be put in a container,f,,
,,,,,,,,9370,2022-04-06_16h07.42.042,ImplicitInfinitySC-FASTTASK,2021.2.3,Win32,59.94125757,,,,space,0.2897,,,,,,,,,,j,1,1.135,,0,30,30,121,1,Jupiter is the planet we live on,j,,
,,,,,,,,9370,2022-04-06_16h07.42.042,ImplicitInfinitySC-FASTTASK,2021.2.3,Win32,59.94125757,,,,space,0.3993,,,,,,,,,,f,0,2.2524,,0,31,31,20,1,Time cannot go on forever,j,,
,,,,,,,,9370,2022-04-06_16h07.42.042,ImplicitInfinitySC-FASTTASK,2021.2.3,Win32,59.94125757,,,,space,1.2035,,,,,,,,,,f,0,2.4259,,0,32,32,6,1,A minute cannot always be further divided,j,,
,,,,,,,,9370,2022-04-06_16h07.42.042,ImplicitInfinitySC-FASTTASK,2021.2.3,Win32,59.94125757,,,,space,0.5659,,,,,,,,,,f,0,1.8008,,0,33,33,34,1,Numbers have an end,j,,
,,,,,,,,9370,2022-04-06_16h07.42.042,ImplicitInfinitySC-FASTTASK,2021.2.3,Win32,59.94125757,,,,space,0.3135,,,,,,,,,,j,1,0.9213,,0,34,34,110,1,A triangle is an animal,j,,
,,,,,,,,9370,2022-04-06_16h07.42.042,ImplicitInfinitySC-FASTTASK,2021.2.3,Win32,59.94125757,,,,space,0.3104,,,,,,,,,,j,1,1.3654,,0,35,35,5,1,A minute can go on forever,j,,
,,,,,,,,9370,2022-04-06_16h07.42.042,ImplicitInfinitySC-FASTTASK,2021.2.3,Win32,59.94125757,,,,space,0.3835,,,,,,,,,,j,1,1.4356,,0,36,36,83,1,Songs can be put in a container,j,,
,,,,,,,,9370,2022-04-06_16h07.42.042,ImplicitInfinitySC-FASTTASK,2021.2.3,Win32,59.94125757,,,,space,0.2838,,,,,,,,,,j,1,0.9668,,0,37,37,62,1,Helicopters reproduce,j,,
,,,,,,,,9370,2022-04-06_16h07.42.042,ImplicitInfinitySC-FASTTASK,2021.2.3,Win32,59.94125757,,,,space,0.234,,,,,,,,,,j,1,0.8735,,0,38,38,115,1,Yellow is an animal,j,,
,,,,,,,,9370,2022-04-06_16h07.42.042,ImplicitInfinitySC-FASTTASK,2021.2.3,Win32,59.94125757,,,,space,0.3021,,,,,,,,,,f,1,0.9493,,0,39,39,96,1,Fish can swim in the ocean,f,,
,,,,,,,,9370,2022-04-06_16h07.42.042,ImplicitInfinitySC-FASTTASK,2021.2.3,Win32,59.94125757,,,,space,1.2013,,,,,,,,,,j,1,0.7683,space,0,40,40,120,1,A truck is an animal,j,0.5087,
,,,,,,,,9370,2022-04-06_16h07.42.042,ImplicitInfinitySC-FASTTASK,2021.2.3,Win32,59.94125757,,,,space,0.3499,,,,,,,,,,f,1,1.0502,,0,41,41,2,1,A minute has an end,f,,
,,,,,,,,9370,2022-04-06_16h07.42.042,ImplicitInfinitySC-FASTTASK,2021.2.3,Win32,59.94125757,,,,space,0.3051,,,,,,,,,,f,1,0.9029,,0,42,42,72,1,Mushrooms reproduce,f,,
,,,,,,,,9370,2022-04-06_16h07.42.042,ImplicitInfinitySC-FASTTASK,2021.2.3,Win32,59.94125757,,,,space,0.2895,,,,,,,,,,j,1,0.9386,,0,43,43,3,1,A minute is endless,j,,
,,,,,,,,9370,2022-04-06_16h07.42.042,ImplicitInfinitySC-FASTTASK,2021.2.3,Win32,59.94125757,,,,space,0.2847,,,,,,,,,,f,1,1.0747,,0,44,44,104,1,The United States has a president,f,,
,,,,,,,,9370,2022-04-06_16h07.42.042,ImplicitInfinitySC-FASTTASK,2021.2.3,Win32,59.94125757,,,,space,0.3012,,,,,,,,,,j,1,1.0489,,0,45,45,24,1,Space is finite,j,,
,,,,,,,,9370,2022-04-06_16h07.42.042,ImplicitInfinitySC-FASTTASK,2021.2.3,Win32,59.94125757,,,,space,0.2741,,,,,,,,,,f,1,0.802,,0,46,46,93,1,Magenta is a color,f,,
,,,,,,,,9370,2022-04-06_16h07.42.042,ImplicitInfinitySC-FASTTASK,2021.2.3,Win32,59.94125757,,,,space,0.2899,,,,,,,,,,f,1,1.1328,,0,47,47,103,1,The United States is a country,f,,
,,,,,,,,9370,2022-04-06_16h07.42.042,ImplicitInfinitySC-FASTTASK,2021.2.3,Win32,59.94125757,,,,space,0.257,,,,,,,,,,j,1,1.1162,,0,48,48,114,1,Lightbulbs are made of clay,j,,
,,,,,,,,9370,2022-04-06_16h07.42.042,ImplicitInfinitySC-FASTTASK,2021.2.3,Win32,59.94125757,,,,space,0.2839,,,,,,,,,,j,1,0.9203,,0,49,49,116,1,Fish cannot swim in the ocean,j,,
,,,,,,,,9370,2022-04-06_16h07.42.042,ImplicitInfinitySC-FASTTASK,2021.2.3,Win32,59.94125757,,,,space,0.321,,,,,,,,,,j,0,1.3175,,0,50,50,19,1,Time is endless,f,,
,,,,,,,,9370,2022-04-06_16h07.42.042,ImplicitInfinitySC-FASTTASK,2021.2.3,Win32,59.94125757,,,,space,0.2838,,,,,,,,,,j,1,1.056,,0,51,51,111,1,A circle is a flavor,j,,
,,,,,,,,9370,2022-04-06_16h07.42.042,ImplicitInfinitySC-FASTTASK,2021.2.3,Win32,59.94125757,,,,space,0.2892,,,,,,,,,,f,1,0.9528,,0,52,52,107,1,A pencil is used to write,f,,
,,,,,,,,9370,2022-04-06_16h07.42.042,ImplicitInfinitySC-FASTTASK,2021.2.3,Win32,59.94125757,,,,space,0.2353,,,,,,,,,,f,1,0.9071,,0,53,53,25,1,Space is infinite,f,,
,,,,,,,,9370,2022-04-06_16h07.42.042,ImplicitInfinitySC-FASTTASK,2021.2.3,Win32,59.94125757,,,,space,0.2187,,,,,,,,,,j,1,0.9164,,0,54,54,1,1,A minute is infinite,j,,
,,,,,,,,9370,2022-04-06_16h07.42.042,ImplicitInfinitySC-FASTTASK,2021.2.3,Win32,59.94125757,,,,space,0.2748,,,,,,,,,,j,1,1.19,,0,55,55,117,1,Dolphins cannot swim in the ocean,j,,
,,,,,,,,9370,2022-04-06_16h07.42.042,ImplicitInfinitySC-FASTTASK,2021.2.3,Win32,59.94125757,,,,space,0.2197,,,,,,,,,,f,1,0.9858,,0,56,56,100,1,A truck is a vehicle,f,,
,,,,,,,,9370,2022-04-06_16h07.42.042,ImplicitInfinitySC-FASTTASK,2021.2.3,Win32,59.94125757,,,,space,0.2368,,,,,,,,,,f,1,1.3079,,0,57,57,76,1,Pollen has a molecular structure,f,,
,,,,,,,,9370,2022-04-06_16h07.42.042,ImplicitInfinitySC-FASTTASK,2021.2.3,Win32,59.94125757,,,,space,0.2009,,,,,,,,,,j,1,1.1039,,0,58,58,127,1,A zebra is used to write,j,,
,,,,,,,,9370,2022-04-06_16h07.42.042,ImplicitInfinitySC-FASTTASK,2021.2.3,Win32,59.94125757,,,,space,0.2527,,,,,,,,,,f,1,0.9338,,0,59,59,68,1,Algae is alive,f,,
,,,,,,,,9370,2022-04-06_16h07.42.042,ImplicitInfinitySC-FASTTASK,2021.2.3,Win32,59.94125757,,,,space,0.2337,,,,,,,,,,f,1,0.7065,,0,60,60,95,1,Yellow is a color,f,,
,,,,,,,,9370,2022-04-06_16h07.42.042,ImplicitInfinitySC-FASTTASK,2021.2.3,Win32,59.94125757,,,,space,0.1837,,,,,,,,,,j,1,0.937,,0,61,61,112,1,Dinosaurs are not extinct,j,,
,,,,,,,,9370,2022-04-06_16h07.42.042,ImplicitInfinitySC-FASTTASK,2021.2.3,Win32,59.94125757,,,,space,0.2544,,,,,,,,,,j,1,1.1563,,0,62,62,63,1,Color can be put in a container,j,,
,,,,,,,,9370,2022-04-06_16h07.42.042,ImplicitInfinitySC-FASTTASK,2021.2.3,Win32,59.94125757,,,,space,0.2248,,,,,,,,,,f,1,0.8664,,0,63,63,50,1,Turtles need nutrients,f,,
,,,,,,,,9370,2022-04-06_16h07.42.042,ImplicitInfinitySC-FASTTASK,2021.2.3,Win32,59.94125757,,,,space,0.1656,,,,,,,,,,j,0,1.203,,0,64,64,35,1,Numbers are endless,f,,
,,,,,,,,9370,2022-04-06_16h07.42.042,ImplicitInfinitySC-FASTTASK,2021.2.3,Win32,59.94125757,,,,space,0.7855,,,,,,,,,,,0,,,0,65,65,46,1,The number five cannot always be further divided,j,,
,,,,,,,,9370,2022-04-06_16h07.42.042,ImplicitInfinitySC-FASTTASK,2021.2.3,Win32,59.94125757,,,,space,1.0907,,,,,,,,,,j,1,2.073,,0,66,66,30,1,Space cannot always be further divided,j,,
,,,,,,,,9370,2022-04-06_16h07.42.042,ImplicitInfinitySC-FASTTASK,2021.2.3,Win32,59.94125757,,,,space,0.2575,,,,,,,,,,f,1,1.4991,,0,67,67,4,1,A minute cannot go on forever,f,,
,,,,,,,,9370,2022-04-06_16h07.42.042,ImplicitInfinitySC-FASTTASK,2021.2.3,Win32,59.94125757,,,,space,0.5885,,,,,,,,,,j,1,1.7916,,0,68,68,14,1,An inch cannot always be further divided,j,,
,,,,,,,,9370,2022-04-06_16h07.42.042,ImplicitInfinitySC-FASTTASK,2021.2.3,Win32,59.94125757,,,,space,1.9499,,,,,,,,,,j,1,0.9184,,0,69,69,80,1,Mittens need nutrients,j,,
,,,,,,,,9370,2022-04-06_16h07.42.042,ImplicitInfinitySC-FASTTASK,2021.2.3,Win32,59.94125757,,,,space,0.3036,,,,,,,,,,f,1,0.9009,,0,70,70,55,1,Concrete is composed of matter,f,,
,,,,,,,,9370,2022-04-06_16h07.42.042,ImplicitInfinitySC-FASTTASK,2021.2.3,Win32,59.94125757,,,,space,0.234,,,,,,,,,,f,1,1.4486,,0,71,71,7,1,A minute can always be further divided,f,,
,,,,,,,,9370,2022-04-06_16h07.42.042,ImplicitInfinitySC-FASTTASK,2021.2.3,Win32,59.94125757,,,,space,0.2687,,,,,,,,,,f,1,1.2327,,0,72,72,29,1,Space can go on forever,f,,
,,,,,,,,9370,2022-04-06_16h07.42.042,ImplicitInfinitySC-FASTTASK,2021.2.3,Win32,59.94125757,,,,space,0.226,,,,,,,,,,j,1,1.5983,,0,73,73,13,1,An inch can go on forever,j,,
,,,,,,,,9370,2022-04-06_16h07.42.042,ImplicitInfinitySC-FASTTASK,2021.2.3,Win32,59.94125757,,,,space,0.2589,,,,,,,,,,j,1,1.1332,,0,74,74,86,1,Words have a molecular structure,j,,
,,,,,,,,9370,2022-04-06_16h07.42.042,ImplicitInfinitySC-FASTTASK,2021.2.3,Win32,59.94125757,,,,space,0.2592,,,,,,,,,,f,1,1.221,,0,75,75,54,1,Dumbells are composed of matter,f,,
,,,,,,,,9370,2022-04-06_16h07.42.042,ImplicitInfinitySC-FASTTASK,2021.2.3,Win32,59.94125757,,,,space,0.318,,,,,,,,,,f,1,1.725,,0,76,76,44,1,The number five cannot go on forever,f,,
,,,,,,,,9370,2022-04-06_16h07.42.042,ImplicitInfinitySC-FASTTASK,2021.2.3,Win32,59.94125757,,,,space,0.7213,,,,,,,,,,j,0,0.8299,,0,77,77,90,1,A triangle is not an animal,f,,
,,,,,,,,9370,2022-04-06_16h07.42.042,ImplicitInfinitySC-FASTTASK,2021.2.3,Win32,59.94125757,,,,space,0.3316,,,,,,,,,,f,1,0.9529,,0,78,78,99,1,A motorcycle is a vehicle,f,,
,,,,,,,,9370,2022-04-06_16h07.42.042,ImplicitInfinitySC-FASTTASK,2021.2.3,Win32,59.94125757,,,,space,0.3228,,,,,,,,,,f,1,0.9224,,0,79,79,89,1,A square is a shape,f,,
,,,,,,,,9370,2022-04-06_16h07.42.042,ImplicitInfinitySC-FASTTASK,2021.2.3,Win32,59.94125757,,,,space,2.0078,,,,,,,,,,j,1,1.8717,,0,80,80,38,1,Numbers cannot always be further divided,j,,
,,,,,,,,9370,2022-04-06_16h07.42.042,ImplicitInfinitySC-FASTTASK,2021.2.3,Win32,59.94125757,,,,,,,,,,,,,,,,,,,,,,,,,,,
